File: ZnPVAGAECH_09 03-20-22-ZnGAPVA ECH-1600 rpm at -0_9V vs RHE RDE1_05_CA_C05(1).mpt
EC-Lab ASCII FILE
Nb header lines : 68

Chronoamperometry / Chronocoulometry

Run on channel : 5 (SN 6729)
User :
CE vs. WE compliance from -10 V to 10 V
Electrode connection : standard
Potential control : Ewe
Ewe ctrl range : min = -2.50 V, max = 2.50 V
Safety Limits :
	Do not start on E overload
Acquisition started on : 03/20/2022 14:08:37.437
Technique started on : 03/20/2022 14:20:48.434
Loaded Setting File :  NONE
Saved on :
	File : 03-20-22-ZnGAPVA  ECH-1600 rpm at -0_8V vs RHE RDE1_05_CA_C05.mpr
	Directory : \\research-scb.egr.msu.edu\research-scb\Mindy\Koutecky Levich\Zn GA PVA 001\ECH\03-20-22\
	Host : 35.9.136.210
Device : VSP (SN 0012)
Address : 35.9.137.65
EC-Lab for windows v11.43 (software)
Internet server v11.40 (firmware)
Command interpretor v11.40 (firmware)
Electrode material :
Initial state :
Electrolyte :
Comments :
Electrode surface area : 0.196 cm²
Characteristic mass : 0.001 g
Equivalent Weight : 0.000 g/eq.
Density : 0.000 g/cm3
Volume (V) : 0.001 cm³
Cycle Definition : Charge/Discharge alternance
Ei (V)              -0.800
vs.                 Ref
ti (h:m:s)          0:30:0.0000
Imax                pass
unit Imax           mA
Imin                pass
unit Imin           mA
dQM                 0.000
unit dQM            mA.h
record              <I>
dI                  5.000
unit dI             µA
dQ                  0.000
unit dQ             mA.h
dt (s)              0.1000
dta (s)             0.1000
E range min (V)     -2.500
E range max (V)     2.500
I Range             Auto
I Range min         Unset
I Range max         Unset
I Range init        Unset
Bandwidth           5
goto Ns'            0
nc cycles           0

Modify on : 03/20/2022 14:20
Ei (V)              -0.900

Modify on : 03/20/2022 14:21
Ei (V)              -0.800

mode	ox/red	error	control changes	Ns changes	counter inc.	Ns	time/s	control/V	Ewe/V	<I>/mA	dQ/C	(Q-Qo)/C	I Range	Q charge/discharge/mA.h	half cycle	Q discharge/mA.h	Q charge/mA.h	Capacity/mA.h	Efficiency/%	cycle number	P/W
2	0	0	0	0	0	0	730.997	-0.899992	-0.900537	-3.10438	-0.000310438	-0.000310438	11	-8.62329e-05	0	8.62329e-05	0.000000000000000E+000	8.62329e-05	0.0000000E+000	0.000000000000000E+000	0.00279561
2	0	0	0	0	0	0	732.297	-0.899992	-0.900384	-3.4559	-0.0047477	-0.0047477	11	-0.0013188	0	0.0013188	0.000000000000000E+000	0.0013188	0.0000000E+000	0.000000000000000E+000	0.00311164
2	0	0	0	0	0	0	733.597	-0.899992	-0.900346	-3.46117	-0.00924309	-0.00924309	11	-0.00256753	0	0.00256753	0.000000000000000E+000	0.00256753	0.0000000E+000	0.000000000000000E+000	0.00311625
2	0	0	0	0	0	0	734.897	-0.899992	-0.900594	-3.5537	-0.0137566	-0.0137566	11	-0.00382127	0	0.00382127	0.000000000000000E+000	0.00382127	0.0000000E+000	0.000000000000000E+000	0.00320044
2	0	0	0	0	0	0	736.197	-0.899992	-0.900537	-3.5012	-0.0183158	-0.0183158	11	-0.00508772	0	0.00508772	0.000000000000000E+000	0.00508772	0.0000000E+000	0.000000000000000E+000	0.00315296
2	0	0	0	0	0	0	737.497	-0.899992	-0.900461	-3.48721	-0.0228529	-0.0228529	11	-0.00634802	0	0.00634802	0.000000000000000E+000	0.00634802	0.0000000E+000	0.000000000000000E+000	0.0031401
2	0	0	0	0	0	0	738.797	-0.899992	-0.900442	-3.4832	-0.0273822	-0.0273822	11	-0.00760615	0	0.00760615	0.000000000000000E+000	0.00760615	0.0000000E+000	0.000000000000000E+000	0.00313642
2	0	0	0	0	0	0	740.097	-0.899992	-0.900251	-3.48071	-0.0319088	-0.0319088	11	-0.00886357	0	0.00886357	0.000000000000000E+000	0.00886357	0.0000000E+000	0.000000000000000E+000	0.00313351
2	0	0	0	0	0	0	741.397	-0.899992	-0.900384	-3.47585	-0.0364272	-0.0364272	11	-0.0101187	0	0.0101187	0.000000000000000E+000	0.0101187	0.0000000E+000	0.000000000000000E+000	0.0031296
2	0	0	0	0	0	0	742.697	-0.899992	-0.900365	-3.47074	-0.0409418	-0.0409418	11	-0.0113727	0	0.0113727	0.000000000000000E+000	0.0113727	0.0000000E+000	0.000000000000000E+000	0.00312493
2	0	0	0	0	0	0	743.997	-0.899992	-0.900461	-3.46571	-0.0454517	-0.0454517	11	-0.0126255	0	0.0126255	0.000000000000000E+000	0.0126255	0.0000000E+000	0.000000000000000E+000	0.00312074
2	0	0	0	0	0	0	745.297	-0.899992	-0.900614	-3.47752	-0.0499643	-0.0499643	11	-0.013879	0	0.013879	0.000000000000000E+000	0.013879	0.0000000E+000	0.000000000000000E+000	0.00313191
2	0	0	0	0	0	0	746.597	-0.899992	-0.900404	-3.47188	-0.0544805	-0.0544805	11	-0.0151335	0	0.0151335	0.000000000000000E+000	0.0151335	0.0000000E+000	0.000000000000000E+000	0.00312609
2	0	0	1	0	0	0	747.897	-0.800047	-0.800423	-2.84137	-0.0589278	-0.0589278	11	-0.0163688	0	0.0163688	0.000000000000000E+000	0.0163688	0.0000000E+000	0.000000000000000E+000	0.0022743
2	0	0	1	0	0	0	749.197	-0.800047	-0.800556	-2.7562	-0.0624196	-0.0624196	11	-0.0173388	0	0.0173388	0.000000000000000E+000	0.0173388	0.0000000E+000	0.000000000000000E+000	0.00220649
2	0	0	1	0	0	0	750.497	-0.800047	-0.8009	-2.77904	-0.0660233	-0.0660233	11	-0.0183398	0	0.0183398	0.000000000000000E+000	0.0183398	0.0000000E+000	0.000000000000000E+000	0.00222573
2	0	0	1	0	0	0	751.797	-0.800047	-0.800518	-2.78645	-0.0696421	-0.0696421	11	-0.019345	0	0.019345	0.000000000000000E+000	0.019345	0.0000000E+000	0.000000000000000E+000	0.00223061
2	0	0	1	0	0	0	753.097	-0.800047	-0.800384	-2.78612	-0.0732628	-0.0732628	11	-0.0203508	0	0.0203508	0.000000000000000E+000	0.0203508	0.0000000E+000	0.000000000000000E+000	0.00222996
2	0	0	1	0	0	0	754.397	-0.800047	-0.800365	-2.78202	-0.0768828	-0.0768828	11	-0.0213563	0	0.0213563	0.000000000000000E+000	0.0213563	0.0000000E+000	0.000000000000000E+000	0.00222663
2	0	0	1	0	0	0	755.697	-0.800047	-0.800556	-2.77945	-0.080498	-0.080498	11	-0.0223605	0	0.0223605	0.000000000000000E+000	0.0223605	0.0000000E+000	0.000000000000000E+000	0.0022251
2	0	0	1	0	0	0	756.997	-0.800047	-0.800594	-2.77455	-0.0841079	-0.0841079	11	-0.0233633	0	0.0233633	0.000000000000000E+000	0.0233633	0.0000000E+000	0.000000000000000E+000	0.00222129
2	0	0	1	0	0	0	758.297	-0.800047	-0.800423	-2.77025	-0.0877113	-0.0877113	11	-0.0243643	0	0.0243643	0.000000000000000E+000	0.0243643	0.0000000E+000	0.000000000000000E+000	0.00221737
2	0	0	1	0	0	0	759.597	-0.800047	-0.800461	-2.76676	-0.091309	-0.091309	11	-0.0253636	0	0.0253636	0.000000000000000E+000	0.0253636	0.0000000E+000	0.000000000000000E+000	0.00221468
2	0	0	1	0	0	0	760.897	-0.800047	-0.800442	-2.76209	-0.0949023	-0.0949023	11	-0.0263618	0	0.0263618	0.000000000000000E+000	0.0263618	0.0000000E+000	0.000000000000000E+000	0.00221089
2	0	0	1	0	0	0	762.197	-0.800047	-0.800289	-2.75575	-0.098489	-0.098489	11	-0.0273581	0	0.0273581	0.000000000000000E+000	0.0273581	0.0000000E+000	0.000000000000000E+000	0.0022054
2	0	0	1	0	0	0	763.497	-0.800047	-0.800403	-2.74985	-0.102067	-0.102067	11	-0.028352	0	0.028352	0.000000000000000E+000	0.028352	0.0000000E+000	0.000000000000000E+000	0.00220099
2	0	0	1	0	0	0	764.797	-0.800047	-0.800537	-2.74934	-0.105642	-0.105642	11	-0.0293449	0	0.0293449	0.000000000000000E+000	0.0293449	0.0000000E+000	0.000000000000000E+000	0.00220095
2	0	0	1	0	0	0	766.097	-0.800047	-0.800327	-2.74149	-0.109211	-0.109211	11	-0.0303365	0	0.0303365	0.000000000000000E+000	0.0303365	0.0000000E+000	0.000000000000000E+000	0.00219409
2	0	0	1	0	0	0	767.397	-0.800047	-0.800575	-2.73732	-0.112774	-0.112774	11	-0.0313261	0	0.0313261	0.000000000000000E+000	0.0313261	0.0000000E+000	0.000000000000000E+000	0.00219143
2	0	0	1	0	0	0	768.697	-0.800047	-0.800556	-2.73282	-0.116329	-0.116329	11	-0.0323137	0	0.0323137	0.000000000000000E+000	0.0323137	0.0000000E+000	0.000000000000000E+000	0.00218777
2	0	0	1	0	0	0	769.997	-0.800047	-0.800499	-2.72751	-0.119879	-0.119879	11	-0.0332997	0	0.0332997	0.000000000000000E+000	0.0332997	0.0000000E+000	0.000000000000000E+000	0.00218337
2	0	0	1	0	0	0	771.297	-0.800047	-0.800461	-2.72396	-0.123423	-0.123423	11	-0.0342841	0	0.0342841	0.000000000000000E+000	0.0342841	0.0000000E+000	0.000000000000000E+000	0.00218042
2	0	0	1	0	0	0	772.597	-0.800047	-0.800423	-2.71736	-0.126959	-0.126959	11	-0.0352664	0	0.0352664	0.000000000000000E+000	0.0352664	0.0000000E+000	0.000000000000000E+000	0.00217504
2	0	0	1	0	0	0	773.897	-0.800047	-0.800575	-2.713	-0.130489	-0.130489	11	-0.0362471	0	0.0362471	0.000000000000000E+000	0.0362471	0.0000000E+000	0.000000000000000E+000	0.00217196
2	0	0	1	0	0	0	775.197	-0.800047	-0.80048	-2.70861	-0.134015	-0.134015	11	-0.0372263	0	0.0372263	0.000000000000000E+000	0.0372263	0.0000000E+000	0.000000000000000E+000	0.00216819
2	0	0	1	0	0	0	776.497	-0.800047	-0.800537	-2.70194	-0.137531	-0.137531	11	-0.038203	0	0.038203	0.000000000000000E+000	0.038203	0.0000000E+000	0.000000000000000E+000	0.002163
2	0	0	1	0	0	0	777.797	-0.800047	-0.800442	-2.69582	-0.141039	-0.141039	11	-0.0391775	0	0.0391775	0.000000000000000E+000	0.0391775	0.0000000E+000	0.000000000000000E+000	0.00215785
2	0	0	1	0	0	0	779.097	-0.800047	-0.800575	-2.69206	-0.144541	-0.144541	11	-0.0401504	0	0.0401504	0.000000000000000E+000	0.0401504	0.0000000E+000	0.000000000000000E+000	0.0021552
2	0	0	1	0	0	0	780.397	-0.800047	-0.800594	-2.68692	-0.148037	-0.148037	11	-0.0411215	0	0.0411215	0.000000000000000E+000	0.0411215	0.0000000E+000	0.000000000000000E+000	0.00215113
2	0	0	1	0	0	0	781.697	-0.800047	-0.800403	-2.6832	-0.151529	-0.151529	11	-0.0420913	0	0.0420913	0.000000000000000E+000	0.0420913	0.0000000E+000	0.000000000000000E+000	0.00214764
2	0	0	1	0	0	0	782.997	-0.800047	-0.800327	-2.67983	-0.155014	-0.155014	11	-0.0430595	0	0.0430595	0.000000000000000E+000	0.0430595	0.0000000E+000	0.000000000000000E+000	0.00214474
2	0	0	1	0	0	0	784.297	-0.800047	-0.800423	-2.67721	-0.158496	-0.158496	11	-0.0440265	0	0.0440265	0.000000000000000E+000	0.0440265	0.0000000E+000	0.000000000000000E+000	0.0021429
2	0	0	1	0	0	0	785.597	-0.800047	-0.80048	-2.67043	-0.161971	-0.161971	11	-0.0449921	0	0.0449921	0.000000000000000E+000	0.0449921	0.0000000E+000	0.000000000000000E+000	0.00213763
2	0	0	1	0	0	0	786.897	-0.800047	-0.800537	-2.23584	-0.165055	-0.165055	11	-0.0458485	0	0.0458485	0.000000000000000E+000	0.0458485	0.0000000E+000	0.000000000000000E+000	0.00178987
2	0	0	1	0	0	0	788.197	-0.800047	-0.800365	-2.23395	-0.167959	-0.167959	11	-0.0466553	0	0.0466553	0.000000000000000E+000	0.0466553	0.0000000E+000	0.000000000000000E+000	0.00178797
2	0	0	1	0	0	0	789.497	-0.800047	-0.800365	-2.21932	-0.170852	-0.170852	11	-0.047459	0	0.047459	0.000000000000000E+000	0.047459	0.0000000E+000	0.000000000000000E+000	0.00177627
2	0	0	1	0	0	0	790.797	-0.800047	-0.800346	-2.21178	-0.173732	-0.173732	11	-0.0482588	0	0.0482588	0.000000000000000E+000	0.0482588	0.0000000E+000	0.000000000000000E+000	0.00177019
2	0	0	1	0	0	0	792.097	-0.800047	-0.800518	-2.20667	-0.176602	-0.176602	11	-0.0490562	0	0.0490562	0.000000000000000E+000	0.0490562	0.0000000E+000	0.000000000000000E+000	0.00176648
2	0	0	1	0	0	0	793.397	-0.800047	-0.800499	-2.19773	-0.179466	-0.179466	11	-0.0498517	0	0.0498517	0.000000000000000E+000	0.0498517	0.0000000E+000	0.000000000000000E+000	0.00175928
2	0	0	1	0	0	0	794.697	-0.800047	-0.80048	-2.19642	-0.182321	-0.182321	11	-0.0506448	0	0.0506448	0.000000000000000E+000	0.0506448	0.0000000E+000	0.000000000000000E+000	0.00175819
2	0	0	1	0	0	0	795.997	-0.800047	-0.800365	-2.19078	-0.185172	-0.185172	11	-0.0514368	0	0.0514368	0.000000000000000E+000	0.0514368	0.0000000E+000	0.000000000000000E+000	0.00175343
2	0	0	1	0	0	0	797.297	-0.800047	-0.800423	-2.19089	-0.188021	-0.188021	11	-0.0522281	0	0.0522281	0.000000000000000E+000	0.0522281	0.0000000E+000	0.000000000000000E+000	0.00175364
2	0	0	1	0	0	0	798.597	-0.800047	-0.800461	-2.18404	-0.190864	-0.190864	11	-0.0530178	0	0.0530178	0.000000000000000E+000	0.0530178	0.0000000E+000	0.000000000000000E+000	0.00174823
2	0	0	1	0	0	0	799.897	-0.800047	-0.800346	-2.18277	-0.193704	-0.193704	11	-0.0538066	0	0.0538066	0.000000000000000E+000	0.0538066	0.0000000E+000	0.000000000000000E+000	0.00174698
2	0	0	1	0	0	0	801.197	-0.800047	-0.800384	-2.17921	-0.196538	-0.196538	11	-0.0545939	0	0.0545939	0.000000000000000E+000	0.0545939	0.0000000E+000	0.000000000000000E+000	0.0017442
2	0	0	1	0	0	0	802.497	-0.800047	-0.800499	-2.17643	-0.19937	-0.19937	11	-0.0553804	0	0.0553804	0.000000000000000E+000	0.0553804	0.0000000E+000	0.000000000000000E+000	0.00174223
2	0	0	1	0	0	0	803.797	-0.800047	-0.800403	-2.17406	-0.202198	-0.202198	11	-0.0561662	0	0.0561662	0.000000000000000E+000	0.0561662	0.0000000E+000	0.000000000000000E+000	0.00174013
2	0	0	1	0	0	0	805.097	-0.800047	-0.800289	-2.17091	-0.205023	-0.205023	11	-0.056951	0	0.056951	0.000000000000000E+000	0.056951	0.0000000E+000	0.000000000000000E+000	0.00173735
2	0	0	1	0	0	0	806.397	-0.800047	-0.800403	-2.17152	-0.207847	-0.207847	11	-0.0577352	0	0.0577352	0.000000000000000E+000	0.0577352	0.0000000E+000	0.000000000000000E+000	0.00173809
2	0	0	1	0	0	0	807.697	-0.800047	-0.800346	-2.16757	-0.210666	-0.210666	11	-0.0585185	0	0.0585185	0.000000000000000E+000	0.0585185	0.0000000E+000	0.000000000000000E+000	0.00173481
2	0	0	1	0	0	0	808.997	-0.800047	-0.800442	-2.1686	-0.213484	-0.213484	11	-0.0593012	0	0.0593012	0.000000000000000E+000	0.0593012	0.0000000E+000	0.000000000000000E+000	0.00173584
2	0	0	1	0	0	0	810.297	-0.800047	-0.800613	-2.16301	-0.216297	-0.216297	11	-0.0600826	0	0.0600826	0.000000000000000E+000	0.0600826	0.0000000E+000	0.000000000000000E+000	0.00173173
2	0	0	1	0	0	0	811.597	-0.800047	-0.800499	-2.16272	-0.219109	-0.219109	11	-0.0608637	0	0.0608637	0.000000000000000E+000	0.0608637	0.0000000E+000	0.000000000000000E+000	0.00173125
2	0	0	1	0	0	0	812.897	-0.800047	-0.800403	-2.15921	-0.221918	-0.221918	11	-0.0616438	0	0.0616438	0.000000000000000E+000	0.0616438	0.0000000E+000	0.000000000000000E+000	0.00172824
2	0	0	1	0	0	0	814.197	-0.800047	-0.800499	-2.15612	-0.224723	-0.224723	11	-0.0624231	0	0.0624231	0.000000000000000E+000	0.0624231	0.0000000E+000	0.000000000000000E+000	0.00172597
2	0	0	1	0	0	0	815.497	-0.800047	-0.800365	-2.15395	-0.227524	-0.227524	11	-0.0632012	0	0.0632012	0.000000000000000E+000	0.0632012	0.0000000E+000	0.000000000000000E+000	0.00172395
2	0	0	1	0	0	0	816.797	-0.800047	-0.800461	-1.99149	-0.230207	-0.230207	11	-0.0639464	0	0.0639464	0.000000000000000E+000	0.0639464	0.0000000E+000	0.000000000000000E+000	0.00159411
2	0	0	1	0	0	0	818.097	-0.800047	-0.800594	-1.95406	-0.232766	-0.232766	11	-0.0646571	0	0.0646571	0.000000000000000E+000	0.0646571	0.0000000E+000	0.000000000000000E+000	0.00156441
2	0	0	1	0	0	0	819.397	-0.800047	-0.800423	-1.93923	-0.235294	-0.235294	11	-0.0653594	0	0.0653594	0.000000000000000E+000	0.0653594	0.0000000E+000	0.000000000000000E+000	0.0015522
2	0	0	1	0	0	0	820.697	-0.800047	-0.800423	-1.93564	-0.237814	-0.237814	11	-0.0660595	0	0.0660595	0.000000000000000E+000	0.0660595	0.0000000E+000	0.000000000000000E+000	0.00154933
2	0	0	1	0	0	0	821.997	-0.800047	-0.80048	-1.93182	-0.240328	-0.240328	11	-0.0667579	0	0.0667579	0.000000000000000E+000	0.0667579	0.0000000E+000	0.000000000000000E+000	0.00154639
2	0	0	1	0	0	0	823.297	-0.800047	-0.800499	-1.92985	-0.242838	-0.242838	11	-0.067455	0	0.067455	0.000000000000000E+000	0.067455	0.0000000E+000	0.000000000000000E+000	0.00154484
2	0	0	1	0	0	0	824.597	-0.800047	-0.800537	-1.92617	-0.245344	-0.245344	11	-0.0681512	0	0.0681512	0.000000000000000E+000	0.0681512	0.0000000E+000	0.000000000000000E+000	0.00154197
2	0	0	1	0	0	0	825.897	-0.800047	-0.800594	-1.92072	-0.247845	-0.247845	11	-0.0688459	0	0.0688459	0.000000000000000E+000	0.0688459	0.0000000E+000	0.000000000000000E+000	0.00153772
2	0	0	1	0	0	0	827.197	-0.800047	-0.80048	-1.91998	-0.250343	-0.250343	11	-0.0695396	0	0.0695396	0.000000000000000E+000	0.0695396	0.0000000E+000	0.000000000000000E+000	0.0015369
2	0	0	1	0	0	0	828.497	-0.800047	-0.800518	-1.91821	-0.252837	-0.252837	11	-0.0702326	0	0.0702326	0.000000000000000E+000	0.0702326	0.0000000E+000	0.000000000000000E+000	0.00153556
2	0	0	1	0	0	0	829.797	-0.800047	-0.800461	-1.91683	-0.25533	-0.25533	11	-0.0709251	0	0.0709251	0.000000000000000E+000	0.0709251	0.0000000E+000	0.000000000000000E+000	0.00153435
2	0	0	1	0	0	0	831.097	-0.800047	-0.800442	-1.91597	-0.257822	-0.257822	11	-0.0716173	0	0.0716173	0.000000000000000E+000	0.0716173	0.0000000E+000	0.000000000000000E+000	0.00153362
2	0	0	1	0	0	0	832.397	-0.800047	-0.800461	-1.91404	-0.260312	-0.260312	11	-0.0723089	0	0.0723089	0.000000000000000E+000	0.0723089	0.0000000E+000	0.000000000000000E+000	0.00153211
2	0	0	1	0	0	0	833.697	-0.800047	-0.800556	-1.9102	-0.262798	-0.262798	11	-0.0729993	0	0.0729993	0.000000000000000E+000	0.0729993	0.0000000E+000	0.000000000000000E+000	0.00152922
2	0	0	1	0	0	0	834.997	-0.800047	-0.800652	-1.90836	-0.26528	-0.26528	11	-0.073689	0	0.073689	0.000000000000000E+000	0.073689	0.0000000E+000	0.000000000000000E+000	0.00152793
2	0	0	1	0	0	0	836.297	-0.800047	-0.800327	-1.90842	-0.26776	-0.26776	11	-0.0743778	0	0.0743778	0.000000000000000E+000	0.0743778	0.0000000E+000	0.000000000000000E+000	0.00152736
2	0	0	1	0	0	0	837.597	-0.800047	-0.80048	-1.90718	-0.27024	-0.27024	11	-0.0750665	0	0.0750665	0.000000000000000E+000	0.0750665	0.0000000E+000	0.000000000000000E+000	0.00152666
2	0	0	1	0	0	0	838.897	-0.800047	-0.800461	-1.90863	-0.272719	-0.272719	11	-0.0757552	0	0.0757552	0.000000000000000E+000	0.0757552	0.0000000E+000	0.000000000000000E+000	0.00152779
2	0	0	1	0	0	0	840.197	-0.800047	-0.800442	-1.90596	-0.275198	-0.275198	11	-0.076444	0	0.076444	0.000000000000000E+000	0.076444	0.0000000E+000	0.000000000000000E+000	0.00152561
2	0	0	1	0	0	0	841.497	-0.800047	-0.800403	-1.90398	-0.277675	-0.277675	11	-0.077132	0	0.077132	0.000000000000000E+000	0.077132	0.0000000E+000	0.000000000000000E+000	0.00152395
2	0	0	1	0	0	0	842.797	-0.800047	-0.800461	-1.90245	-0.28015	-0.28015	11	-0.0778194	0	0.0778194	0.000000000000000E+000	0.0778194	0.0000000E+000	0.000000000000000E+000	0.00152284
2	0	0	1	0	0	0	844.097	-0.800047	-0.800365	-1.85475	-0.282608	-0.282608	11	-0.0785022	0	0.0785022	0.000000000000000E+000	0.0785022	0.0000000E+000	0.000000000000000E+000	0.00148448
2	0	0	1	0	0	0	845.397	-0.800047	-0.800442	-1.67778	-0.284883	-0.284883	11	-0.0791341	0	0.0791341	0.000000000000000E+000	0.0791341	0.0000000E+000	0.000000000000000E+000	0.00134297
2	0	0	1	0	0	0	846.697	-0.800047	-0.800575	-1.62326	-0.287021	-0.287021	11	-0.0797281	0	0.0797281	0.000000000000000E+000	0.0797281	0.0000000E+000	0.000000000000000E+000	0.00129954
2	0	0	1	0	0	0	847.997	-0.800047	-0.800365	-1.60053	-0.289116	-0.289116	11	-0.0803099	0	0.0803099	0.000000000000000E+000	0.0803099	0.0000000E+000	0.000000000000000E+000	0.00128101
2	0	0	1	0	0	0	849.297	-0.800047	-0.800652	-1.59315	-0.291189	-0.291189	11	-0.0808859	0	0.0808859	0.000000000000000E+000	0.0808859	0.0000000E+000	0.000000000000000E+000	0.00127556
2	0	0	1	0	0	0	850.597	-0.800047	-0.800461	-1.58688	-0.293256	-0.293256	11	-0.0814599	0	0.0814599	0.000000000000000E+000	0.0814599	0.0000000E+000	0.000000000000000E+000	0.00127024
2	0	0	1	0	0	0	851.897	-0.800047	-0.800575	-1.58331	-0.295314	-0.295314	11	-0.0820317	0	0.0820317	0.000000000000000E+000	0.0820317	0.0000000E+000	0.000000000000000E+000	0.00126756
2	0	0	1	0	0	0	853.197	-0.800047	-0.800499	-1.58079	-0.297368	-0.297368	11	-0.0826023	0	0.0826023	0.000000000000000E+000	0.0826023	0.0000000E+000	0.000000000000000E+000	0.00126542
2	0	0	1	0	0	0	854.497	-0.800047	-0.800518	-1.57587	-0.299419	-0.299419	11	-0.083172	0	0.083172	0.000000000000000E+000	0.083172	0.0000000E+000	0.000000000000000E+000	0.00126151
2	0	0	1	0	0	0	855.797	-0.800047	-0.800365	-1.5727	-0.301466	-0.301466	11	-0.0837406	0	0.0837406	0.000000000000000E+000	0.0837406	0.0000000E+000	0.000000000000000E+000	0.00125873
2	0	0	1	0	0	0	857.097	-0.800047	-0.800556	-1.57179	-0.303512	-0.303512	11	-0.0843088	0	0.0843088	0.000000000000000E+000	0.0843088	0.0000000E+000	0.000000000000000E+000	0.00125831
2	0	0	1	0	0	0	858.397	-0.800047	-0.800499	-1.57163	-0.305556	-0.305556	11	-0.0848766	0	0.0848766	0.000000000000000E+000	0.0848766	0.0000000E+000	0.000000000000000E+000	0.00125809
2	0	0	1	0	0	0	859.697	-0.800047	-0.800423	-1.57096	-0.307598	-0.307598	11	-0.0854439	0	0.0854439	0.000000000000000E+000	0.0854439	0.0000000E+000	0.000000000000000E+000	0.00125743
2	0	0	1	0	0	0	860.997	-0.800047	-0.800556	-1.56878	-0.309638	-0.309638	11	-0.0860105	0	0.0860105	0.000000000000000E+000	0.0860105	0.0000000E+000	0.000000000000000E+000	0.00125589
2	0	0	1	0	0	0	862.297	-0.800047	-0.800709	-1.56724	-0.311675	-0.311675	11	-0.0865763	0	0.0865763	0.000000000000000E+000	0.0865763	0.0000000E+000	0.000000000000000E+000	0.0012549
2	0	0	1	0	0	0	863.597	-0.800047	-0.800518	-1.56747	-0.31371	-0.31371	11	-0.0871416	0	0.0871416	0.000000000000000E+000	0.0871416	0.0000000E+000	0.000000000000000E+000	0.00125478
2	0	0	1	0	0	0	864.897	-0.800047	-0.800537	-1.56519	-0.315745	-0.315745	11	-0.0877068	0	0.0877068	0.000000000000000E+000	0.0877068	0.0000000E+000	0.000000000000000E+000	0.00125299
2	0	0	1	0	0	0	866.197	-0.800047	-0.800346	-1.56247	-0.317778	-0.317778	11	-0.0882716	0	0.0882716	0.000000000000000E+000	0.0882716	0.0000000E+000	0.000000000000000E+000	0.00125052
2	0	0	1	0	0	0	867.497	-0.800047	-0.800442	-1.56208	-0.319811	-0.319811	11	-0.0888364	0	0.0888364	0.000000000000000E+000	0.0888364	0.0000000E+000	0.000000000000000E+000	0.00125035
2	0	0	1	0	0	0	868.797	-0.800047	-0.800442	-1.56155	-0.321843	-0.321843	11	-0.0894007	0	0.0894007	0.000000000000000E+000	0.0894007	0.0000000E+000	0.000000000000000E+000	0.00124993
2	0	0	1	0	0	0	870.097	-0.800047	-0.800403	-1.56012	-0.323872	-0.323872	11	-0.0899645	0	0.0899645	0.000000000000000E+000	0.0899645	0.0000000E+000	0.000000000000000E+000	0.00124872
2	0	0	1	0	0	0	871.397	-0.800047	-0.800442	-1.54591	-0.325899	-0.325899	11	-0.0905275	0	0.0905275	0.000000000000000E+000	0.0905275	0.0000000E+000	0.000000000000000E+000	0.00123741
2	0	0	1	0	0	0	872.697	-0.800047	-0.800442	-1.43884	-0.327819	-0.327819	11	-0.0910608	0	0.0910608	0.000000000000000E+000	0.0910608	0.0000000E+000	0.000000000000000E+000	0.00115171
2	0	0	1	0	0	0	873.997	-0.800047	-0.800403	-1.414	-0.329669	-0.329669	11	-0.0915748	0	0.0915748	0.000000000000000E+000	0.0915748	0.0000000E+000	0.000000000000000E+000	0.00113177
2	0	0	1	0	0	0	875.297	-0.800047	-0.800575	-1.40191	-0.331498	-0.331498	11	-0.0920828	0	0.0920828	0.000000000000000E+000	0.0920828	0.0000000E+000	0.000000000000000E+000	0.00112233
2	0	0	1	0	0	0	876.597	-0.800047	-0.800518	-1.39376	-0.333316	-0.333316	11	-0.0925877	0	0.0925877	0.000000000000000E+000	0.0925877	0.0000000E+000	0.000000000000000E+000	0.00111573
2	0	0	1	0	0	0	877.897	-0.800047	-0.800556	-1.393	-0.335128	-0.335128	11	-0.0930911	0	0.0930911	0.000000000000000E+000	0.0930911	0.0000000E+000	0.000000000000000E+000	0.00111518
2	0	0	1	0	0	0	879.197	-0.800047	-0.800499	-1.39	-0.336936	-0.336936	11	-0.0935933	0	0.0935933	0.000000000000000E+000	0.0935933	0.0000000E+000	0.000000000000000E+000	0.0011127
2	0	0	1	0	0	0	880.497	-0.800047	-0.800442	-1.38632	-0.33874	-0.33874	11	-0.0940945	0	0.0940945	0.000000000000000E+000	0.0940945	0.0000000E+000	0.000000000000000E+000	0.00110967
2	0	0	1	0	0	0	881.797	-0.800047	-0.800518	-1.38611	-0.340543	-0.340543	11	-0.0945953	0	0.0945953	0.000000000000000E+000	0.0945953	0.0000000E+000	0.000000000000000E+000	0.00110961
2	0	0	1	0	0	0	883.097	-0.800047	-0.800346	-1.38563	-0.342344	-0.342344	11	-0.0950957	0	0.0950957	0.000000000000000E+000	0.0950957	0.0000000E+000	0.000000000000000E+000	0.00110899
2	0	0	1	0	0	0	884.397	-0.800047	-0.800461	-1.38556	-0.344145	-0.344145	11	-0.0955959	0	0.0955959	0.000000000000000E+000	0.0955959	0.0000000E+000	0.000000000000000E+000	0.00110908
2	0	0	1	0	0	0	885.697	-0.800047	-0.800423	-1.38068	-0.345943	-0.345943	11	-0.0960954	0	0.0960954	0.000000000000000E+000	0.0960954	0.0000000E+000	0.000000000000000E+000	0.00110512
2	0	0	1	0	0	0	886.997	-0.800047	-0.800518	-1.38221	-0.34774	-0.34774	11	-0.0965945	0	0.0965945	0.000000000000000E+000	0.0965945	0.0000000E+000	0.000000000000000E+000	0.00110649
2	0	0	1	0	0	0	888.297	-0.800047	-0.800403	-1.38241	-0.349536	-0.349536	11	-0.0970934	0	0.0970934	0.000000000000000E+000	0.0970934	0.0000000E+000	0.000000000000000E+000	0.00110649
2	0	0	1	0	0	0	889.597	-0.800047	-0.800613	-1.38134	-0.351332	-0.351332	11	-0.0975922	0	0.0975922	0.000000000000000E+000	0.0975922	0.0000000E+000	0.000000000000000E+000	0.00110592
2	0	0	1	0	0	0	890.897	-0.800047	-0.800575	-1.31771	-0.353107	-0.353107	11	-0.0980852	0	0.0980852	0.000000000000000E+000	0.0980852	0.0000000E+000	0.000000000000000E+000	0.00105493
2	0	0	1	0	0	0	892.197	-0.800047	-0.800423	-1.25532	-0.354765	-0.354765	11	-0.0985458	0	0.0985458	0.000000000000000E+000	0.0985458	0.0000000E+000	0.000000000000000E+000	0.00100478
2	0	0	1	0	0	0	893.497	-0.800047	-0.800403	-1.23609	-0.356383	-0.356383	11	-0.0989952	0	0.0989952	0.000000000000000E+000	0.0989952	0.0000000E+000	0.000000000000000E+000	0.000989367
2	0	0	1	0	0	0	894.797	-0.800047	-0.800499	-1.22935	-0.357989	-0.357989	11	-0.0994413	0	0.0994413	0.000000000000000E+000	0.0994413	0.0000000E+000	0.000000000000000E+000	0.000984096
2	0	0	1	0	0	0	896.097	-0.800047	-0.800327	-1.22193	-0.359581	-0.359581	11	-0.0998837	0	0.0998837	0.000000000000000E+000	0.0998837	0.0000000E+000	0.000000000000000E+000	0.000977941
2	0	0	1	0	0	0	897.397	-0.800047	-0.800499	-1.219	-0.361167	-0.361167	11	-0.100324	0	0.100324	0.000000000000000E+000	0.100324	0.0000000E+000	0.000000000000000E+000	0.000975809
2	0	0	1	0	0	0	898.697	-0.800047	-0.800461	-1.21834	-0.362752	-0.362752	11	-0.100764	0	0.100764	0.000000000000000E+000	0.100764	0.0000000E+000	0.000000000000000E+000	0.000975232
2	0	0	1	0	0	0	899.997	-0.800047	-0.800442	-1.21558	-0.364333	-0.364333	11	-0.101204	0	0.101204	0.000000000000000E+000	0.101204	0.0000000E+000	0.000000000000000E+000	0.000973001
2	0	0	1	0	0	0	901.297	-0.800047	-0.800423	-1.21538	-0.365913	-0.365913	11	-0.101642	0	0.101642	0.000000000000000E+000	0.101642	0.0000000E+000	0.000000000000000E+000	0.000972816
2	0	0	1	0	0	0	902.597	-0.800047	-0.800556	-1.21314	-0.36749	-0.36749	11	-0.102081	0	0.102081	0.000000000000000E+000	0.102081	0.0000000E+000	0.000000000000000E+000	0.000971187
2	0	0	1	0	0	0	903.897	-0.800047	-0.800499	-1.21252	-0.369066	-0.369066	11	-0.102518	0	0.102518	0.000000000000000E+000	0.102518	0.0000000E+000	0.000000000000000E+000	0.000970618
2	0	0	1	0	0	0	905.197	-0.800047	-0.800384	-1.21198	-0.370641	-0.370641	11	-0.102956	0	0.102956	0.000000000000000E+000	0.102956	0.0000000E+000	0.000000000000000E+000	0.000970046
2	0	0	1	0	0	0	906.497	-0.800047	-0.800537	-1.20984	-0.372214	-0.372214	11	-0.103393	0	0.103393	0.000000000000000E+000	0.103393	0.0000000E+000	0.000000000000000E+000	0.000968518
2	0	0	1	0	0	0	907.797	-0.800047	-0.80048	-1.20938	-0.373786	-0.373786	11	-0.103829	0	0.103829	0.000000000000000E+000	0.103829	0.0000000E+000	0.000000000000000E+000	0.000968081
2	0	0	1	0	0	0	909.097	-0.800047	-0.80048	-1.20754	-0.375356	-0.375356	11	-0.104266	0	0.104266	0.000000000000000E+000	0.104266	0.0000000E+000	0.000000000000000E+000	0.000966609
2	0	0	1	0	0	0	910.397	-0.800047	-0.800365	-1.20661	-0.376925	-0.376925	11	-0.104702	0	0.104702	0.000000000000000E+000	0.104702	0.0000000E+000	0.000000000000000E+000	0.000965733
2	0	0	1	0	0	0	911.697	-0.800047	-0.800518	-1.20801	-0.378494	-0.378494	11	-0.105137	0	0.105137	0.000000000000000E+000	0.105137	0.0000000E+000	0.000000000000000E+000	0.000967035
2	0	0	1	0	0	0	912.997	-0.800047	-0.800442	-1.20622	-0.380062	-0.380062	11	-0.105573	0	0.105573	0.000000000000000E+000	0.105573	0.0000000E+000	0.000000000000000E+000	0.000965509
2	0	0	1	0	0	0	914.297	-0.800047	-0.800442	-1.1731	-0.381615	-0.381615	11	-0.106004	0	0.106004	0.000000000000000E+000	0.106004	0.0000000E+000	0.000000000000000E+000	0.000938997
2	0	0	1	0	0	0	915.597	-0.800047	-0.800518	-1.13033	-0.383106	-0.383106	11	-0.106418	0	0.106418	0.000000000000000E+000	0.106418	0.0000000E+000	0.000000000000000E+000	0.000904851
2	0	0	1	0	0	0	916.897	-0.800047	-0.800423	-1.11367	-0.384564	-0.384564	11	-0.106823	0	0.106823	0.000000000000000E+000	0.106823	0.0000000E+000	0.000000000000000E+000	0.000891403
2	0	0	1	0	0	0	918.197	-0.800047	-0.80048	-1.10403	-0.386007	-0.386007	11	-0.107224	0	0.107224	0.000000000000000E+000	0.107224	0.0000000E+000	0.000000000000000E+000	0.000883756
2	0	0	1	0	0	0	919.497	-0.800047	-0.80048	-1.10488	-0.387447	-0.387447	11	-0.107624	0	0.107624	0.000000000000000E+000	0.107624	0.0000000E+000	0.000000000000000E+000	0.000884431
2	0	0	1	0	0	0	920.797	-0.800047	-0.800518	-1.10113	-0.388879	-0.388879	11	-0.108022	0	0.108022	0.000000000000000E+000	0.108022	0.0000000E+000	0.000000000000000E+000	0.000881475
2	0	0	1	0	0	0	922.097	-0.800047	-0.800442	-1.09984	-0.390308	-0.390308	11	-0.108419	0	0.108419	0.000000000000000E+000	0.108419	0.0000000E+000	0.000000000000000E+000	0.000880362
2	0	0	1	0	0	0	923.397	-0.800047	-0.800461	-1.09687	-0.391735	-0.391735	11	-0.108815	0	0.108815	0.000000000000000E+000	0.108815	0.0000000E+000	0.000000000000000E+000	0.000878
2	0	0	1	0	0	0	924.697	-0.800047	-0.80048	-1.09749	-0.393161	-0.393161	11	-0.109211	0	0.109211	0.000000000000000E+000	0.109211	0.0000000E+000	0.000000000000000E+000	0.000878518
2	0	0	1	0	0	0	925.997	-0.800047	-0.80048	-1.09563	-0.394586	-0.394586	11	-0.109607	0	0.109607	0.000000000000000E+000	0.109607	0.0000000E+000	0.000000000000000E+000	0.000877026
2	0	0	1	0	0	0	927.297	-0.800047	-0.800365	-1.09453	-0.396009	-0.396009	11	-0.110003	0	0.110003	0.000000000000000E+000	0.110003	0.0000000E+000	0.000000000000000E+000	0.000876024
2	0	0	1	0	0	0	928.597	-0.800047	-0.800384	-1.0932	-0.397432	-0.397432	11	-0.110398	0	0.110398	0.000000000000000E+000	0.110398	0.0000000E+000	0.000000000000000E+000	0.000874978
2	0	0	1	0	0	0	929.897	-0.800047	-0.800442	-1.09146	-0.398853	-0.398853	11	-0.110792	0	0.110792	0.000000000000000E+000	0.110792	0.0000000E+000	0.000000000000000E+000	0.00087365
2	0	0	1	0	0	0	931.197	-0.800047	-0.80048	-1.09083	-0.400273	-0.400273	11	-0.111187	0	0.111187	0.000000000000000E+000	0.111187	0.0000000E+000	0.000000000000000E+000	0.000873188
2	0	0	1	0	0	0	932.497	-0.800047	-0.800518	-1.09335	-0.401693	-0.401693	11	-0.111581	0	0.111581	0.000000000000000E+000	0.111581	0.0000000E+000	0.000000000000000E+000	0.000875244
2	0	0	1	0	0	0	933.797	-0.800047	-0.800442	-1.13063	-0.403134	-0.403134	11	-0.111982	0	0.111982	0.000000000000000E+000	0.111982	0.0000000E+000	0.000000000000000E+000	0.000905007
2	0	0	1	0	0	0	935.097	-0.800047	-0.800461	-1.17103	-0.404637	-0.404637	11	-0.112399	0	0.112399	0.000000000000000E+000	0.112399	0.0000000E+000	0.000000000000000E+000	0.000937361
2	0	0	1	0	0	0	936.397	-0.800047	-0.800499	-1.18295	-0.406168	-0.406168	11	-0.112825	0	0.112825	0.000000000000000E+000	0.112825	0.0000000E+000	0.000000000000000E+000	0.000946948
2	0	0	1	0	0	0	937.697	-0.800047	-0.800442	-1.18971	-0.407711	-0.407711	11	-0.113253	0	0.113253	0.000000000000000E+000	0.113253	0.0000000E+000	0.000000000000000E+000	0.000952296
2	0	0	1	0	0	0	938.997	-0.800047	-0.800499	-1.19249	-0.40926	-0.40926	11	-0.113683	0	0.113683	0.000000000000000E+000	0.113683	0.0000000E+000	0.000000000000000E+000	0.000954583
2	0	0	1	0	0	0	940.297	-0.800047	-0.800461	-1.20399	-0.410814	-0.410814	11	-0.114115	0	0.114115	0.000000000000000E+000	0.114115	0.0000000E+000	0.000000000000000E+000	0.000963743
2	0	0	1	0	0	0	941.597	-0.800047	-0.800518	-1.1954	-0.41237	-0.41237	11	-0.114547	0	0.114547	0.000000000000000E+000	0.114547	0.0000000E+000	0.000000000000000E+000	0.00095694
2	0	0	1	0	0	0	942.897	-0.800047	-0.800537	-1.1976	-0.413924	-0.413924	11	-0.114979	0	0.114979	0.000000000000000E+000	0.114979	0.0000000E+000	0.000000000000000E+000	0.000958726
2	0	0	1	0	0	0	944.197	-0.800047	-0.800442	-1.19415	-0.415478	-0.415478	11	-0.11541	0	0.11541	0.000000000000000E+000	0.11541	0.0000000E+000	0.000000000000000E+000	0.000955848
2	0	0	1	0	0	0	945.497	-0.800047	-0.800442	-1.19302	-0.417029	-0.417029	11	-0.115841	0	0.115841	0.000000000000000E+000	0.115841	0.0000000E+000	0.000000000000000E+000	0.00095494
2	0	0	1	0	0	0	946.797	-0.800047	-0.800537	-1.19146	-0.418577	-0.418577	11	-0.116271	0	0.116271	0.000000000000000E+000	0.116271	0.0000000E+000	0.000000000000000E+000	0.00095381
2	0	0	1	0	0	0	948.097	-0.800047	-0.800384	-1.19089	-0.420126	-0.420126	11	-0.116702	0	0.116702	0.000000000000000E+000	0.116702	0.0000000E+000	0.000000000000000E+000	0.000953168
2	0	0	1	0	0	0	949.397	-0.800047	-0.80048	-1.19097	-0.421674	-0.421674	11	-0.117132	0	0.117132	0.000000000000000E+000	0.117132	0.0000000E+000	0.000000000000000E+000	0.000953348
2	0	0	1	0	0	0	950.697	-0.800047	-0.800403	-1.19067	-0.423222	-0.423222	11	-0.117562	0	0.117562	0.000000000000000E+000	0.117562	0.0000000E+000	0.000000000000000E+000	0.00095302
2	0	0	1	0	0	0	951.997	-0.800047	-0.800461	-1.19002	-0.424769	-0.424769	11	-0.117991	0	0.117991	0.000000000000000E+000	0.117991	0.0000000E+000	0.000000000000000E+000	0.000952562
2	0	0	1	0	0	0	953.297	-0.800047	-0.800556	-1.1906	-0.426317	-0.426317	11	-0.118421	0	0.118421	0.000000000000000E+000	0.118421	0.0000000E+000	0.000000000000000E+000	0.000953146
2	0	0	1	0	0	0	954.597	-0.800047	-0.800403	-1.19116	-0.427864	-0.427864	11	-0.118851	0	0.118851	0.000000000000000E+000	0.118851	0.0000000E+000	0.000000000000000E+000	0.00095341
2	0	0	1	0	0	0	955.897	-0.800047	-0.800384	-1.18979	-0.429411	-0.429411	11	-0.119281	0	0.119281	0.000000000000000E+000	0.119281	0.0000000E+000	0.000000000000000E+000	0.000952288
2	0	0	1	0	0	0	957.197	-0.800047	-0.800365	-1.18882	-0.430957	-0.430957	11	-0.11971	0	0.11971	0.000000000000000E+000	0.11971	0.0000000E+000	0.000000000000000E+000	0.000951491
2	0	0	1	0	0	0	958.497	-0.800047	-0.800423	-1.19073	-0.432504	-0.432504	11	-0.12014	0	0.12014	0.000000000000000E+000	0.12014	0.0000000E+000	0.000000000000000E+000	0.00095309
2	0	0	1	0	0	0	959.797	-0.800047	-0.800365	-1.19064	-0.434051	-0.434051	11	-0.12057	0	0.12057	0.000000000000000E+000	0.12057	0.0000000E+000	0.000000000000000E+000	0.000952943
2	0	0	1	0	0	0	961.097	-0.800047	-0.800403	-1.19559	-0.435598	-0.435598	11	-0.120999	0	0.120999	0.000000000000000E+000	0.120999	0.0000000E+000	0.000000000000000E+000	0.000956954
2	0	0	1	0	0	0	962.397	-0.800047	-0.800384	-1.31694	-0.43726	-0.43726	11	-0.121461	0	0.121461	0.000000000000000E+000	0.121461	0.0000000E+000	0.000000000000000E+000	0.00105406
2	0	0	1	0	0	0	963.697	-0.800047	-0.800423	-1.33726	-0.438988	-0.438988	11	-0.121941	0	0.121941	0.000000000000000E+000	0.121941	0.0000000E+000	0.000000000000000E+000	0.00107037
2	0	0	1	0	0	0	964.997	-0.800047	-0.800461	-1.34827	-0.440735	-0.440735	11	-0.122427	0	0.122427	0.000000000000000E+000	0.122427	0.0000000E+000	0.000000000000000E+000	0.00107923
2	0	0	1	0	0	0	966.297	-0.800047	-0.800461	-1.35365	-0.442491	-0.442491	11	-0.122914	0	0.122914	0.000000000000000E+000	0.122914	0.0000000E+000	0.000000000000000E+000	0.00108354
2	0	0	1	0	0	0	967.597	-0.800047	-0.800442	-1.35371	-0.444251	-0.444251	11	-0.123403	0	0.123403	0.000000000000000E+000	0.123403	0.0000000E+000	0.000000000000000E+000	0.00108356
2	0	0	1	0	0	0	968.897	-0.800047	-0.800461	-1.3593	-0.446013	-0.446013	11	-0.123893	0	0.123893	0.000000000000000E+000	0.123893	0.0000000E+000	0.000000000000000E+000	0.00108806
2	0	0	1	0	0	0	970.197	-0.800047	-0.800365	-1.35591	-0.447781	-0.447781	11	-0.124384	0	0.124384	0.000000000000000E+000	0.124384	0.0000000E+000	0.000000000000000E+000	0.00108522
2	0	0	1	0	0	0	971.497	-0.800047	-0.800365	-1.35555	-0.449543	-0.449543	11	-0.124873	0	0.124873	0.000000000000000E+000	0.124873	0.0000000E+000	0.000000000000000E+000	0.00108493
2	0	0	1	0	0	0	972.797	-0.800047	-0.800442	-1.35221	-0.451302	-0.451302	11	-0.125362	0	0.125362	0.000000000000000E+000	0.125362	0.0000000E+000	0.000000000000000E+000	0.00108236
2	0	0	1	0	0	0	974.097	-0.800047	-0.800461	-1.35302	-0.453062	-0.453062	11	-0.12585	0	0.12585	0.000000000000000E+000	0.12585	0.0000000E+000	0.000000000000000E+000	0.00108304
2	0	0	1	0	0	0	975.397	-0.800047	-0.800594	-1.35273	-0.454819	-0.454819	11	-0.126339	0	0.126339	0.000000000000000E+000	0.126339	0.0000000E+000	0.000000000000000E+000	0.00108299
2	0	0	1	0	0	0	976.697	-0.800047	-0.800613	-1.35031	-0.456576	-0.456576	11	-0.126827	0	0.126827	0.000000000000000E+000	0.126827	0.0000000E+000	0.000000000000000E+000	0.00108107
2	0	0	1	0	0	0	977.997	-0.800047	-0.800403	-1.34941	-0.458332	-0.458332	11	-0.127314	0	0.127314	0.000000000000000E+000	0.127314	0.0000000E+000	0.000000000000000E+000	0.00108007
2	0	0	1	0	0	0	979.297	-0.800047	-0.800518	-1.34885	-0.460086	-0.460086	11	-0.127802	0	0.127802	0.000000000000000E+000	0.127802	0.0000000E+000	0.000000000000000E+000	0.00107978
2	0	0	1	0	0	0	980.597	-0.800047	-0.80048	-1.34909	-0.461838	-0.461838	11	-0.128288	0	0.128288	0.000000000000000E+000	0.128288	0.0000000E+000	0.000000000000000E+000	0.00107992
2	0	0	1	0	0	0	981.897	-0.800047	-0.800537	-1.34741	-0.463591	-0.463591	11	-0.128775	0	0.128775	0.000000000000000E+000	0.128775	0.0000000E+000	0.000000000000000E+000	0.00107865
2	0	0	1	0	0	0	983.197	-0.800047	-0.800499	-1.34725	-0.465344	-0.465344	11	-0.129262	0	0.129262	0.000000000000000E+000	0.129262	0.0000000E+000	0.000000000000000E+000	0.00107847
2	0	0	1	0	0	0	984.497	-0.800047	-0.800518	-1.45026	-0.467159	-0.467159	11	-0.129766	0	0.129766	0.000000000000000E+000	0.129766	0.0000000E+000	0.000000000000000E+000	0.00116096
2	0	0	1	0	0	0	985.797	-0.800047	-0.800518	-1.48366	-0.469072	-0.469072	11	-0.130298	0	0.130298	0.000000000000000E+000	0.130298	0.0000000E+000	0.000000000000000E+000	0.00118769
2	0	0	1	0	0	0	987.097	-0.800047	-0.800537	-1.49644	-0.471008	-0.471008	11	-0.130836	0	0.130836	0.000000000000000E+000	0.130836	0.0000000E+000	0.000000000000000E+000	0.00119796
2	0	0	1	0	0	0	988.397	-0.800047	-0.800423	-1.50067	-0.472955	-0.472955	11	-0.131376	0	0.131376	0.000000000000000E+000	0.131376	0.0000000E+000	0.000000000000000E+000	0.00120117
2	0	0	1	0	0	0	989.697	-0.800047	-0.800365	-1.50012	-0.474907	-0.474907	11	-0.131919	0	0.131919	0.000000000000000E+000	0.131919	0.0000000E+000	0.000000000000000E+000	0.00120064
2	0	0	1	0	0	0	990.997	-0.800047	-0.80048	-1.49825	-0.476857	-0.476857	11	-0.13246	0	0.13246	0.000000000000000E+000	0.13246	0.0000000E+000	0.000000000000000E+000	0.00119932
2	0	0	1	0	0	0	992.297	-0.800047	-0.800537	-1.49829	-0.478807	-0.478807	11	-0.133002	0	0.133002	0.000000000000000E+000	0.133002	0.0000000E+000	0.000000000000000E+000	0.00119943
2	0	0	1	0	0	0	993.597	-0.800047	-0.800442	-1.496	-0.480755	-0.480755	11	-0.133543	0	0.133543	0.000000000000000E+000	0.133543	0.0000000E+000	0.000000000000000E+000	0.00119746
2	0	0	1	0	0	0	994.897	-0.800047	-0.800461	-1.49566	-0.482699	-0.482699	11	-0.134083	0	0.134083	0.000000000000000E+000	0.134083	0.0000000E+000	0.000000000000000E+000	0.00119721
2	0	0	1	0	0	0	996.197	-0.800047	-0.800633	-1.49866	-0.484645	-0.484645	11	-0.134624	0	0.134624	0.000000000000000E+000	0.134624	0.0000000E+000	0.000000000000000E+000	0.00119987
2	0	0	1	0	0	0	997.497	-0.800047	-0.800556	-1.4962	-0.48659	-0.48659	11	-0.135164	0	0.135164	0.000000000000000E+000	0.135164	0.0000000E+000	0.000000000000000E+000	0.00119779
2	0	0	1	0	0	0	998.797	-0.800047	-0.800442	-1.49576	-0.488534	-0.488534	11	-0.135704	0	0.135704	0.000000000000000E+000	0.135704	0.0000000E+000	0.000000000000000E+000	0.00119727
2	0	0	1	0	0	0	1000.1	-0.800047	-0.800442	-1.49492	-0.490477	-0.490477	11	-0.136244	0	0.136244	0.000000000000000E+000	0.136244	0.0000000E+000	0.000000000000000E+000	0.0011966
2	0	0	1	0	0	0	1001.4	-0.800047	-0.800461	-1.49279	-0.492421	-0.492421	11	-0.136784	0	0.136784	0.000000000000000E+000	0.136784	0.0000000E+000	0.000000000000000E+000	0.00119492
2	0	0	1	0	0	0	1002.7	-0.800047	-0.800365	-1.49474	-0.494364	-0.494364	11	-0.137323	0	0.137323	0.000000000000000E+000	0.137323	0.0000000E+000	0.000000000000000E+000	0.00119634
2	0	0	1	0	0	0	1004	-0.800047	-0.800461	-1.49297	-0.496307	-0.496307	11	-0.137863	0	0.137863	0.000000000000000E+000	0.137863	0.0000000E+000	0.000000000000000E+000	0.00119506
2	0	0	1	0	0	0	1005.3	-0.800047	-0.800346	-1.49195	-0.498248	-0.498248	11	-0.138402	0	0.138402	0.000000000000000E+000	0.138402	0.0000000E+000	0.000000000000000E+000	0.00119408
2	0	0	1	0	0	0	1006.6	-0.800047	-0.80027	-1.57669	-0.50021	-0.50021	11	-0.138947	0	0.138947	0.000000000000000E+000	0.138947	0.0000000E+000	0.000000000000000E+000	0.00126177
2	0	0	1	0	0	0	1007.9	-0.800047	-0.800365	-1.73477	-0.502401	-0.502401	11	-0.139556	0	0.139556	0.000000000000000E+000	0.139556	0.0000000E+000	0.000000000000000E+000	0.00138845
2	0	0	1	0	0	0	1009.2	-0.800047	-0.800423	-1.76586	-0.504681	-0.504681	11	-0.140189	0	0.140189	0.000000000000000E+000	0.140189	0.0000000E+000	0.000000000000000E+000	0.00141343
2	0	0	1	0	0	0	1010.5	-0.800047	-0.80048	-1.77634	-0.506986	-0.506986	11	-0.140829	0	0.140829	0.000000000000000E+000	0.140829	0.0000000E+000	0.000000000000000E+000	0.00142193
2	0	0	1	0	0	0	1011.8	-0.800047	-0.800384	-1.78107	-0.509299	-0.509299	11	-0.141472	0	0.141472	0.000000000000000E+000	0.141472	0.0000000E+000	0.000000000000000E+000	0.00142554
2	0	0	1	0	0	0	1013.1	-0.800047	-0.800442	-1.78223	-0.511615	-0.511615	11	-0.142115	0	0.142115	0.000000000000000E+000	0.142115	0.0000000E+000	0.000000000000000E+000	0.00142657
2	0	0	1	0	0	0	1014.4	-0.800047	-0.800327	-1.78309	-0.513934	-0.513934	11	-0.142759	0	0.142759	0.000000000000000E+000	0.142759	0.0000000E+000	0.000000000000000E+000	0.00142706
2	0	0	1	0	0	0	1015.7	-0.800047	-0.800594	-1.78551	-0.516253	-0.516253	11	-0.143404	0	0.143404	0.000000000000000E+000	0.143404	0.0000000E+000	0.000000000000000E+000	0.00142947
2	0	0	1	0	0	0	1017	-0.800047	-0.80048	-1.78375	-0.518573	-0.518573	11	-0.144048	0	0.144048	0.000000000000000E+000	0.144048	0.0000000E+000	0.000000000000000E+000	0.00142786
2	0	0	1	0	0	0	1018.3	-0.800047	-0.800327	-1.78359	-0.520891	-0.520891	11	-0.144692	0	0.144692	0.000000000000000E+000	0.144692	0.0000000E+000	0.000000000000000E+000	0.00142745
2	0	0	1	0	0	0	1019.6	-0.800047	-0.800442	-1.78277	-0.523209	-0.523209	11	-0.145336	0	0.145336	0.000000000000000E+000	0.145336	0.0000000E+000	0.000000000000000E+000	0.001427
2	0	0	1	0	0	0	1020.9	-0.800047	-0.800384	-1.78199	-0.525527	-0.525527	11	-0.14598	0	0.14598	0.000000000000000E+000	0.14598	0.0000000E+000	0.000000000000000E+000	0.00142627
2	0	0	1	0	0	0	1022.2	-0.800047	-0.800537	-1.78218	-0.527843	-0.527843	11	-0.146623	0	0.146623	0.000000000000000E+000	0.146623	0.0000000E+000	0.000000000000000E+000	0.0014267
2	0	0	1	0	0	0	1023.5	-0.800047	-0.80048	-1.78246	-0.530158	-0.530158	11	-0.147266	0	0.147266	0.000000000000000E+000	0.147266	0.0000000E+000	0.000000000000000E+000	0.00142683
2	0	0	1	0	0	0	1024.8	-0.800047	-0.800461	-1.78183	-0.532475	-0.532475	11	-0.14791	0	0.14791	0.000000000000000E+000	0.14791	0.0000000E+000	0.000000000000000E+000	0.00142629
2	0	0	1	0	0	0	1026.1	-0.800047	-0.800403	-1.77977	-0.53479	-0.53479	11	-0.148553	0	0.148553	0.000000000000000E+000	0.148553	0.0000000E+000	0.000000000000000E+000	0.00142454
2	0	0	1	0	0	0	1027.4	-0.800047	-0.800423	-1.78099	-0.537106	-0.537106	11	-0.149196	0	0.149196	0.000000000000000E+000	0.149196	0.0000000E+000	0.000000000000000E+000	0.00142555
2	0	0	1	0	0	0	1028.7	-0.800047	-0.800403	-1.77987	-0.539421	-0.539421	11	-0.149839	0	0.149839	0.000000000000000E+000	0.149839	0.0000000E+000	0.000000000000000E+000	0.00142461
2	0	0	1	0	0	0	1030	-0.800047	-0.800499	-1.77783	-0.541734	-0.541734	11	-0.150482	0	0.150482	0.000000000000000E+000	0.150482	0.0000000E+000	0.000000000000000E+000	0.00142315
2	0	0	1	0	0	0	1031.3	-0.800047	-0.800461	-1.78531	-0.544049	-0.544049	11	-0.151125	0	0.151125	0.000000000000000E+000	0.151125	0.0000000E+000	0.000000000000000E+000	0.00142907
2	0	0	1	0	0	0	1032.6	-0.800047	-0.80048	-1.77831	-0.546363	-0.546363	11	-0.151768	0	0.151768	0.000000000000000E+000	0.151768	0.0000000E+000	0.000000000000000E+000	0.0014235
2	0	0	1	0	0	0	1033.9	-0.800047	-0.800499	-1.89084	-0.548709	-0.548709	11	-0.152419	0	0.152419	0.000000000000000E+000	0.152419	0.0000000E+000	0.000000000000000E+000	0.00151362
2	0	0	1	0	0	0	1035.2	-0.800047	-0.800423	-1.96126	-0.551234	-0.551234	11	-0.153121	0	0.153121	0.000000000000000E+000	0.153121	0.0000000E+000	0.000000000000000E+000	0.00156983
2	0	0	1	0	0	0	1036.5	-0.800047	-0.80048	-1.9707	-0.553792	-0.553792	11	-0.153831	0	0.153831	0.000000000000000E+000	0.153831	0.0000000E+000	0.000000000000000E+000	0.0015775
2	0	0	1	0	0	0	1037.8	-0.800047	-0.800442	-1.97526	-0.556358	-0.556358	11	-0.154544	0	0.154544	0.000000000000000E+000	0.154544	0.0000000E+000	0.000000000000000E+000	0.00158108
2	0	0	1	0	0	0	1039.1	-0.800047	-0.800518	-1.97671	-0.558927	-0.558927	11	-0.155257	0	0.155257	0.000000000000000E+000	0.155257	0.0000000E+000	0.000000000000000E+000	0.0015824
2	0	0	1	0	0	0	1040.4	-0.800047	-0.80048	-1.98037	-0.5615	-0.5615	11	-0.155972	0	0.155972	0.000000000000000E+000	0.155972	0.0000000E+000	0.000000000000000E+000	0.00158525
2	0	0	1	0	0	0	1041.7	-0.800047	-0.800518	-1.97895	-0.564074	-0.564074	11	-0.156687	0	0.156687	0.000000000000000E+000	0.156687	0.0000000E+000	0.000000000000000E+000	0.00158418
2	0	0	1	0	0	0	1043	-0.800047	-0.800442	-1.98093	-0.566647	-0.566647	11	-0.157402	0	0.157402	0.000000000000000E+000	0.157402	0.0000000E+000	0.000000000000000E+000	0.00158562
2	0	0	1	0	0	0	1044.3	-0.800047	-0.800499	-1.97602	-0.569219	-0.569219	11	-0.158116	0	0.158116	0.000000000000000E+000	0.158116	0.0000000E+000	0.000000000000000E+000	0.00158181
2	0	0	1	0	0	0	1045.6	-0.800047	-0.800594	-1.97698	-0.571788	-0.571788	11	-0.15883	0	0.15883	0.000000000000000E+000	0.15883	0.0000000E+000	0.000000000000000E+000	0.00158276
2	0	0	1	0	0	0	1046.9	-0.800047	-0.800403	-1.9732	-0.574355	-0.574355	11	-0.159543	0	0.159543	0.000000000000000E+000	0.159543	0.0000000E+000	0.000000000000000E+000	0.00157936
2	0	0	1	0	0	0	1048.2	-0.800047	-0.800461	-1.97621	-0.576923	-0.576923	11	-0.160256	0	0.160256	0.000000000000000E+000	0.160256	0.0000000E+000	0.000000000000000E+000	0.00158188
2	0	0	1	0	0	0	1049.5	-0.800047	-0.800384	-1.97249	-0.579489	-0.579489	11	-0.160969	0	0.160969	0.000000000000000E+000	0.160969	0.0000000E+000	0.000000000000000E+000	0.00157875
2	0	0	1	0	0	0	1050.8	-0.800047	-0.80048	-1.9712	-0.582053	-0.582053	11	-0.161681	0	0.161681	0.000000000000000E+000	0.161681	0.0000000E+000	0.000000000000000E+000	0.0015779
2	0	0	1	0	0	0	1052.1	-0.800047	-0.800518	-1.97404	-0.584618	-0.584618	11	-0.162394	0	0.162394	0.000000000000000E+000	0.162394	0.0000000E+000	0.000000000000000E+000	0.00158026
2	0	0	1	0	0	0	1053.4	-0.800047	-0.800594	-1.9695	-0.587182	-0.587182	11	-0.163106	0	0.163106	0.000000000000000E+000	0.163106	0.0000000E+000	0.000000000000000E+000	0.00157677
2	0	0	1	0	0	0	1054.7	-0.800047	-0.800461	-1.97188	-0.589744	-0.589744	11	-0.163818	0	0.163818	0.000000000000000E+000	0.163818	0.0000000E+000	0.000000000000000E+000	0.00157841
2	0	0	1	0	0	0	1056	-0.800047	-0.800461	-1.96778	-0.592305	-0.592305	11	-0.164529	0	0.164529	0.000000000000000E+000	0.164529	0.0000000E+000	0.000000000000000E+000	0.00157513
2	0	0	1	0	0	0	1057.3	-0.800047	-0.800403	-1.96681	-0.594863	-0.594863	11	-0.16524	0	0.16524	0.000000000000000E+000	0.16524	0.0000000E+000	0.000000000000000E+000	0.00157424
2	0	0	1	0	0	0	1058.6	-0.800047	-0.800423	-1.96443	-0.597418	-0.597418	11	-0.165949	0	0.165949	0.000000000000000E+000	0.165949	0.0000000E+000	0.000000000000000E+000	0.00157237
2	0	0	1	0	0	0	1059.9	-0.800047	-0.800442	-1.96459	-0.599971	-0.599971	11	-0.166659	0	0.166659	0.000000000000000E+000	0.166659	0.0000000E+000	0.000000000000000E+000	0.00157254
2	0	0	1	0	0	0	1061.2	-0.800047	-0.800575	-1.96282	-0.602522	-0.602522	11	-0.167367	0	0.167367	0.000000000000000E+000	0.167367	0.0000000E+000	0.000000000000000E+000	0.00157139
2	0	0	1	0	0	0	1062.5	-0.800047	-0.800384	-1.975	-0.605074	-0.605074	11	-0.168076	0	0.168076	0.000000000000000E+000	0.168076	0.0000000E+000	0.000000000000000E+000	0.00158076
2	0	0	1	0	0	0	1063.8	-0.800047	-0.800461	-2.37678	-0.608099	-0.608099	11	-0.168916	0	0.168916	0.000000000000000E+000	0.168916	0.0000000E+000	0.000000000000000E+000	0.00190252
2	0	0	1	0	0	0	1065.1	-0.800047	-0.800461	-2.35787	-0.611167	-0.611167	11	-0.169769	0	0.169769	0.000000000000000E+000	0.169769	0.0000000E+000	0.000000000000000E+000	0.00188738
2	0	0	1	0	0	0	1066.4	-0.800047	-0.800384	-2.3601	-0.614233	-0.614233	11	-0.17062	0	0.17062	0.000000000000000E+000	0.17062	0.0000000E+000	0.000000000000000E+000	0.00188898
2	0	0	1	0	0	0	1067.7	-0.800047	-0.800518	-2.36236	-0.617302	-0.617302	11	-0.171473	0	0.171473	0.000000000000000E+000	0.171473	0.0000000E+000	0.000000000000000E+000	0.00189112
2	0	0	1	0	0	0	1069	-0.800047	-0.800499	-2.36024	-0.620373	-0.620373	11	-0.172326	0	0.172326	0.000000000000000E+000	0.172326	0.0000000E+000	0.000000000000000E+000	0.00188937
2	0	0	1	0	0	0	1070.3	-0.800047	-0.800442	-2.36199	-0.623443	-0.623443	11	-0.173179	0	0.173179	0.000000000000000E+000	0.173179	0.0000000E+000	0.000000000000000E+000	0.00189064
2	0	0	1	0	0	0	1071.6	-0.800047	-0.800556	-2.36075	-0.626512	-0.626512	11	-0.174031	0	0.174031	0.000000000000000E+000	0.174031	0.0000000E+000	0.000000000000000E+000	0.00188991
2	0	0	1	0	0	0	1072.9	-0.800047	-0.800461	-2.35692	-0.629579	-0.629579	11	-0.174883	0	0.174883	0.000000000000000E+000	0.174883	0.0000000E+000	0.000000000000000E+000	0.00188663
2	0	0	1	0	0	0	1074.2	-0.800047	-0.800461	-2.35878	-0.632646	-0.632646	11	-0.175735	0	0.175735	0.000000000000000E+000	0.175735	0.0000000E+000	0.000000000000000E+000	0.00188811
2	0	0	1	0	0	0	1075.5	-0.800047	-0.800556	-2.35788	-0.635712	-0.635712	11	-0.176587	0	0.176587	0.000000000000000E+000	0.176587	0.0000000E+000	0.000000000000000E+000	0.00188762
2	0	0	1	0	0	0	1076.8	-0.800047	-0.80048	-2.35725	-0.638776	-0.638776	11	-0.177438	0	0.177438	0.000000000000000E+000	0.177438	0.0000000E+000	0.000000000000000E+000	0.00188693
2	0	0	1	0	0	0	1078.1	-0.800047	-0.80048	-2.35684	-0.641839	-0.641839	11	-0.178289	0	0.178289	0.000000000000000E+000	0.178289	0.0000000E+000	0.000000000000000E+000	0.0018866
2	0	0	1	0	0	0	1079.4	-0.800047	-0.800594	-2.35441	-0.644901	-0.644901	11	-0.179139	0	0.179139	0.000000000000000E+000	0.179139	0.0000000E+000	0.000000000000000E+000	0.00188493
2	0	0	1	0	0	0	1080.7	-0.800047	-0.800346	-2.34776	-0.647957	-0.647957	11	-0.179988	0	0.179988	0.000000000000000E+000	0.179988	0.0000000E+000	0.000000000000000E+000	0.00187902
2	0	0	1	0	0	0	1082	-0.800047	-0.800613	-2.3481	-0.651011	-0.651011	11	-0.180836	0	0.180836	0.000000000000000E+000	0.180836	0.0000000E+000	0.000000000000000E+000	0.00187992
2	0	0	1	0	0	0	1083.3	-0.800047	-0.800461	-2.34782	-0.654064	-0.654064	11	-0.181684	0	0.181684	0.000000000000000E+000	0.181684	0.0000000E+000	0.000000000000000E+000	0.00187934
2	0	0	1	0	0	0	1084.6	-0.800047	-0.800384	-2.3396	-0.65711	-0.65711	11	-0.18253	0	0.18253	0.000000000000000E+000	0.18253	0.0000000E+000	0.000000000000000E+000	0.00187258
2	0	0	1	0	0	0	1085.9	-0.800047	-0.800423	-2.33871	-0.660151	-0.660151	11	-0.183375	0	0.183375	0.000000000000000E+000	0.183375	0.0000000E+000	0.000000000000000E+000	0.00187196
2	0	0	1	0	0	0	1087.2	-0.800047	-0.800556	-2.33854	-0.663192	-0.663192	11	-0.18422	0	0.18422	0.000000000000000E+000	0.18422	0.0000000E+000	0.000000000000000E+000	0.00187214
2	0	0	1	0	0	0	1088.5	-0.800047	-0.80048	-2.33733	-0.666232	-0.666232	11	-0.185064	0	0.185064	0.000000000000000E+000	0.185064	0.0000000E+000	0.000000000000000E+000	0.00187098
2	0	0	1	0	0	0	1089.8	-0.800047	-0.800461	-2.33659	-0.669271	-0.669271	11	-0.185908	0	0.185908	0.000000000000000E+000	0.185908	0.0000000E+000	0.000000000000000E+000	0.00187035
2	0	0	1	0	0	0	1089.99	-0.800047	-0.800537	-2.33379	-0.669711	-0.669711	11	-0.186031	0	0.186031	0.000000000000000E+000	0.186031	0.0000000E+000	0.000000000000000E+000	0.00186828