File: ZnPVAECH_1 04-22-22-Zn -1 PVA ECH 1600 rpm K-L gc3_02_CA_C05.mpt
EC-Lab ASCII FILE
Nb header lines : 63

Chronoamperometry / Chronocoulometry

Run on channel : 5 (SN 6729)
User :
CE vs. WE compliance from -10 V to 10 V
Electrode connection : standard
Potential control : Ewe
Ewe ctrl range : min = -2.50 V, max = 2.50 V
Safety Limits :
	Do not start on E overload
Acquisition started on : 04/04/2022 13:47:44.060
Technique started on : 04/04/2022 13:47:49.208
Loaded Setting File :  NONE
Saved on :
	File : 04-22-22-Zn PVA ECH 1600 rpm K-L gc3_02_CA_C05.mpr
	Directory : \\research-scb.egr.msu.edu\research-scb\Mindy\Koutecky Levich\Zn PVA\ECH\04-04-22\
	Host : 35.9.136.210
Device : VSP (SN 0012)
Address : 35.9.137.65
EC-Lab for windows v11.43 (software)
Internet server v11.40 (firmware)
Command interpretor v11.40 (firmware)
Electrode material : Au/Pd
Initial state :
Electrolyte : NaCl (0.2M)
Comments : Fe(CN)63-/Fe(CN)64- 5.10-3 M
Reference electrode : SCE Saturated Calomel Electrode (0.241 V)
Electrode surface area : 0.196 cm²
Characteristic mass : 0.001 g
Equivalent Weight : 0.000 g/eq.
Density : 0.000 g/cm3
Volume (V) : 0.001 cm³
Cycle Definition : Charge/Discharge alternance
Ei (V)              -1.000
vs.                 Ref
ti (h:m:s)          0:10:0.0000
Imax                pass
unit Imax           mA
Imin                pass
unit Imin           mA
dQM                 0.000
unit dQM            mA.h
record              <I>
dI                  5.000
unit dI             µA
dQ                  0.000
unit dQ             mA.h
dt (s)              0.1000
dta (s)             0.1000
E range min (V)     -2.500
E range max (V)     2.500
I Range             Auto
I Range min         Unset
I Range max         Unset
I Range init        Unset
Bandwidth           5
goto Ns'            0
nc cycles           0

mode	ox/red	error	control changes	Ns changes	counter inc.	Ns	time/s	control/V	Ewe/V	<I>/mA	dQ/C	(Q-Qo)/C	I Range	Q charge/discharge/mA.h	half cycle	Q discharge/mA.h	Q charge/mA.h	Capacity/mA.h	Efficiency/%	cycle number	P/W
2	0	0	0	0	0	0	5.1484	-1.00001	-1.00059	-6.77508	-0.000138825	-0.000138825	11	-3.85626e-05	0	3.85626e-05	0.000000000000000E+000	3.85626e-05	0.0000000E+000	0.000000000000000E+000	0.00677909
2	0	0	0	0	0	0	6.1484	-1.00001	-1.00067	-6.45863	-0.00664123	-0.00664123	11	-0.00184479	0	0.00184479	0.000000000000000E+000	0.00184479	0.0000000E+000	0.000000000000000E+000	0.00646295
2	0	0	0	0	0	0	7.1484	-1.00001	-1.00029	-6.42056	-0.0130785	-0.0130785	11	-0.00363291	0	0.00363291	0.000000000000000E+000	0.00363291	0.0000000E+000	0.000000000000000E+000	0.0064224
2	0	0	0	0	0	0	8.1484	-1.00001	-1.00034	-6.40396	-0.0194872	-0.0194872	11	-0.00541311	0	0.00541311	0.000000000000000E+000	0.00541311	0.0000000E+000	0.000000000000000E+000	0.00640616
2	0	0	0	0	0	0	9.1484	-1.00001	-1.00021	-6.38718	-0.0258788	-0.0258788	11	-0.00718856	0	0.00718856	0.000000000000000E+000	0.00718856	0.0000000E+000	0.000000000000000E+000	0.00638852
2	0	0	0	0	0	0	10.1484	-1.00001	-1.00042	-6.37269	-0.032261	-0.032261	11	-0.00896138	0	0.00896138	0.000000000000000E+000	0.00896138	0.0000000E+000	0.000000000000000E+000	0.00637536
2	0	0	0	0	0	0	11.1484	-1.00001	-1.00044	-6.36717	-0.0386287	-0.0386287	11	-0.0107302	0	0.0107302	0.000000000000000E+000	0.0107302	0.0000000E+000	0.000000000000000E+000	0.00636996
2	0	0	0	0	0	0	12.1484	-1.00001	-1.0001	-6.35625	-0.0449888	-0.0449888	11	-0.0124969	0	0.0124969	0.000000000000000E+000	0.0124969	0.0000000E+000	0.000000000000000E+000	0.00635685
2	0	0	0	0	0	0	13.1484	-1.00001	-1.00017	-6.35115	-0.0513442	-0.0513442	11	-0.0142623	0	0.0142623	0.000000000000000E+000	0.0142623	0.0000000E+000	0.000000000000000E+000	0.00635224
2	0	0	0	0	0	0	14.1484	-1.00001	-1.00044	-6.34369	-0.0576945	-0.0576945	11	-0.0160262	0	0.0160262	0.000000000000000E+000	0.0160262	0.0000000E+000	0.000000000000000E+000	0.00634648
2	0	0	0	0	0	0	15.1484	-1.00001	-1.00044	-6.33443	-0.0640325	-0.0640325	11	-0.0177868	0	0.0177868	0.000000000000000E+000	0.0177868	0.0000000E+000	0.000000000000000E+000	0.00633721
2	0	0	0	0	0	0	16.1484	-1.00001	-1.00038	-6.32749	-0.0703623	-0.0703623	11	-0.0195451	0	0.0195451	0.000000000000000E+000	0.0195451	0.0000000E+000	0.000000000000000E+000	0.0063299
2	0	0	0	0	0	0	17.1484	-1.00001	-1.0009	-6.32439	-0.0766881	-0.0766881	11	-0.0213023	0	0.0213023	0.000000000000000E+000	0.0213023	0.0000000E+000	0.000000000000000E+000	0.00633006
2	0	0	0	0	0	0	18.1484	-1.00001	-1.00013	-6.32612	-0.0830116	-0.0830116	11	-0.0230588	0	0.0230588	0.000000000000000E+000	0.0230588	0.0000000E+000	0.000000000000000E+000	0.00632697
2	0	0	0	0	0	0	19.1484	-1.00001	-1.00027	-6.3143	-0.0893297	-0.0893297	11	-0.0248138	0	0.0248138	0.000000000000000E+000	0.0248138	0.0000000E+000	0.000000000000000E+000	0.00631599
2	0	0	0	0	0	0	20.1484	-1.00001	-1.00057	-6.31043	-0.0956436	-0.0956436	11	-0.0265677	0	0.0265677	0.000000000000000E+000	0.0265677	0.0000000E+000	0.000000000000000E+000	0.00631404
2	0	0	0	0	0	0	21.1484	-1.00001	-1.0004	-6.30381	-0.10195	-0.10195	11	-0.0283196	0	0.0283196	0.000000000000000E+000	0.0283196	0.0000000E+000	0.000000000000000E+000	0.00630634
2	0	0	0	0	0	0	22.1484	-1.00001	-1.00059	-6.30183	-0.108253	-0.108253	11	-0.0300702	0	0.0300702	0.000000000000000E+000	0.0300702	0.0000000E+000	0.000000000000000E+000	0.00630556
2	0	0	0	0	0	0	23.1484	-1.00001	-1.00031	-6.29076	-0.11455	-0.11455	11	-0.0318194	0	0.0318194	0.000000000000000E+000	0.0318194	0.0000000E+000	0.000000000000000E+000	0.00629268
2	0	0	0	0	0	0	24.1484	-1.00001	-1.00048	-6.28792	-0.120839	-0.120839	11	-0.0335665	0	0.0335665	0.000000000000000E+000	0.0335665	0.0000000E+000	0.000000000000000E+000	0.00629092
2	0	0	0	0	0	0	25.1484	-1.00001	-1.0001	-6.28444	-0.127123	-0.127123	11	-0.0353119	0	0.0353119	0.000000000000000E+000	0.0353119	0.0000000E+000	0.000000000000000E+000	0.00628504
2	0	0	0	0	0	0	26.1484	-1.00001	-1.00036	-6.27399	-0.133401	-0.133401	11	-0.0370558	0	0.0370558	0.000000000000000E+000	0.0370558	0.0000000E+000	0.000000000000000E+000	0.00627627
2	0	0	0	0	0	0	27.1484	-1.00001	-1.00025	-6.27429	-0.139679	-0.139679	11	-0.0387997	0	0.0387997	0.000000000000000E+000	0.0387997	0.0000000E+000	0.000000000000000E+000	0.00627584
2	0	0	0	0	0	0	28.1484	-1.00001	-1.00053	-6.27316	-0.145955	-0.145955	11	-0.0405431	0	0.0405431	0.000000000000000E+000	0.0405431	0.0000000E+000	0.000000000000000E+000	0.00627651
2	0	0	0	0	0	0	29.1484	-1.00001	-1.00044	-6.26124	-0.152222	-0.152222	11	-0.0422838	0	0.0422838	0.000000000000000E+000	0.0422838	0.0000000E+000	0.000000000000000E+000	0.00626399
2	0	0	0	0	0	0	30.1484	-1.00001	-1.00027	-6.26511	-0.158485	-0.158485	11	-0.0440236	0	0.0440236	0.000000000000000E+000	0.0440236	0.0000000E+000	0.000000000000000E+000	0.00626679
2	0	0	0	0	0	0	31.1484	-1.00001	-1.00021	-6.26149	-0.164744	-0.164744	11	-0.0457623	0	0.0457623	0.000000000000000E+000	0.0457623	0.0000000E+000	0.000000000000000E+000	0.0062628
2	0	0	0	0	0	0	32.1484	-1.00001	-1.0004	-6.25369	-0.171003	-0.171003	11	-0.0475009	0	0.0475009	0.000000000000000E+000	0.0475009	0.0000000E+000	0.000000000000000E+000	0.00625619
2	0	0	0	0	0	0	33.1484	-1.00001	-1.00021	-6.25574	-0.177263	-0.177263	11	-0.0492396	0	0.0492396	0.000000000000000E+000	0.0492396	0.0000000E+000	0.000000000000000E+000	0.00625705
2	0	0	0	0	0	0	34.1484	-1.00001	-1.00025	-6.25986	-0.183521	-0.183521	11	-0.050978	0	0.050978	0.000000000000000E+000	0.050978	0.0000000E+000	0.000000000000000E+000	0.00626141
2	0	0	0	0	0	0	35.1484	-1.00001	-1.00019	-6.2578	-0.189778	-0.189778	11	-0.0527161	0	0.0527161	0.000000000000000E+000	0.0527161	0.0000000E+000	0.000000000000000E+000	0.006259
2	0	0	0	0	0	0	36.1484	-1.00001	-1.00025	-6.25165	-0.196033	-0.196033	11	-0.0544535	0	0.0544535	0.000000000000000E+000	0.0544535	0.0000000E+000	0.000000000000000E+000	0.0062532
2	0	0	0	0	0	0	37.1484	-1.00001	-1.00046	-6.25441	-0.202286	-0.202286	11	-0.0561906	0	0.0561906	0.000000000000000E+000	0.0561906	0.0000000E+000	0.000000000000000E+000	0.00625727
2	0	0	0	0	0	0	38.1484	-1.00001	-1.00038	-6.2487	-0.208538	-0.208538	11	-0.0579273	0	0.0579273	0.000000000000000E+000	0.0579273	0.0000000E+000	0.000000000000000E+000	0.00625108
2	0	0	0	0	0	0	39.1484	-1.00001	-1.00011	-6.23856	-0.214782	-0.214782	11	-0.0596617	0	0.0596617	0.000000000000000E+000	0.0596617	0.0000000E+000	0.000000000000000E+000	0.00623927
2	0	0	0	0	0	0	40.1484	-1.00001	-1.00034	-6.23364	-0.221018	-0.221018	11	-0.0613939	0	0.0613939	0.000000000000000E+000	0.0613939	0.0000000E+000	0.000000000000000E+000	0.00623578
2	0	0	0	0	0	0	41.1484	-1.00001	-1.00042	-6.23461	-0.227251	-0.227251	11	-0.0631253	0	0.0631253	0.000000000000000E+000	0.0631253	0.0000000E+000	0.000000000000000E+000	0.00623722
2	0	0	0	0	0	0	42.1484	-1.00001	-1.00042	-6.22098	-0.233481	-0.233481	11	-0.0648559	0	0.0648559	0.000000000000000E+000	0.0648559	0.0000000E+000	0.000000000000000E+000	0.00622359
2	0	0	0	0	0	0	43.1484	-1.00001	-1.00046	-6.22172	-0.239705	-0.239705	11	-0.0665848	0	0.0665848	0.000000000000000E+000	0.0665848	0.0000000E+000	0.000000000000000E+000	0.00622457
2	0	0	0	0	0	0	44.1484	-1.00001	-1.0004	-6.22516	-0.245928	-0.245928	11	-0.0683134	0	0.0683134	0.000000000000000E+000	0.0683134	0.0000000E+000	0.000000000000000E+000	0.00622765
2	0	0	0	0	0	0	45.1484	-1.00001	-1.00021	-6.21408	-0.25215	-0.25215	11	-0.0700418	0	0.0700418	0.000000000000000E+000	0.0700418	0.0000000E+000	0.000000000000000E+000	0.00621539
2	0	0	0	0	0	0	46.1484	-1.00001	-1.0005	-6.20897	-0.258361	-0.258361	11	-0.0717669	0	0.0717669	0.000000000000000E+000	0.0717669	0.0000000E+000	0.000000000000000E+000	0.00621205
2	0	0	0	0	0	0	47.1484	-1.00001	-1.00094	-6.20481	-0.264569	-0.264569	11	-0.0734913	0	0.0734913	0.000000000000000E+000	0.0734913	0.0000000E+000	0.000000000000000E+000	0.00621061
2	0	0	0	0	0	0	48.1484	-1.00001	-1.00008	-6.20273	-0.270772	-0.270772	11	-0.0752145	0	0.0752145	0.000000000000000E+000	0.0752145	0.0000000E+000	0.000000000000000E+000	0.00620321
2	0	0	0	0	0	0	49.1484	-1.00001	-1.00053	-6.19303	-0.276969	-0.276969	11	-0.0769358	0	0.0769358	0.000000000000000E+000	0.0769358	0.0000000E+000	0.000000000000000E+000	0.00619634
2	0	0	0	0	0	0	50.1484	-1.00001	-1.00042	-6.19857	-0.283166	-0.283166	11	-0.0786573	0	0.0786573	0.000000000000000E+000	0.0786573	0.0000000E+000	0.000000000000000E+000	0.00620117
2	0	0	0	0	0	0	51.1484	-1.00001	-1.00055	-6.19938	-0.289365	-0.289365	11	-0.0803791	0	0.0803791	0.000000000000000E+000	0.0803791	0.0000000E+000	0.000000000000000E+000	0.00620281
2	0	0	0	0	0	0	52.1484	-1.00001	-1.00019	-6.1889	-0.295559	-0.295559	11	-0.0820998	0	0.0820998	0.000000000000000E+000	0.0820998	0.0000000E+000	0.000000000000000E+000	0.00619008
2	0	0	0	0	0	0	53.1484	-1.00001	-1.00065	-6.1985	-0.301755	-0.301755	11	-0.0838208	0	0.0838208	0.000000000000000E+000	0.0838208	0.0000000E+000	0.000000000000000E+000	0.00620252
2	0	0	0	0	0	0	54.1484	-1.00001	-1.0005	-6.19209	-0.307948	-0.307948	11	-0.085541	0	0.085541	0.000000000000000E+000	0.085541	0.0000000E+000	0.000000000000000E+000	0.00619516
2	0	0	0	0	0	0	55.1484	-1.00001	-1.00023	-6.18512	-0.314137	-0.314137	11	-0.0872602	0	0.0872602	0.000000000000000E+000	0.0872602	0.0000000E+000	0.000000000000000E+000	0.00618654
2	0	0	0	0	0	0	56.1484	-1.00001	-1.00023	-6.18313	-0.320323	-0.320323	11	-0.0889785	0	0.0889785	0.000000000000000E+000	0.0889785	0.0000000E+000	0.000000000000000E+000	0.00618455
2	0	0	0	0	0	0	57.1484	-1.00001	-1.00029	-6.17724	-0.326502	-0.326502	11	-0.0906951	0	0.0906951	0.000000000000000E+000	0.0906951	0.0000000E+000	0.000000000000000E+000	0.006179
2	0	0	0	0	0	0	58.1484	-1.00001	-1.00023	-6.17056	-0.332675	-0.332675	11	-0.0924098	0	0.0924098	0.000000000000000E+000	0.0924098	0.0000000E+000	0.000000000000000E+000	0.00617197
2	0	0	0	0	0	0	59.1484	-1.00001	-1.00006	-6.17005	-0.33885	-0.33885	11	-0.0941249	0	0.0941249	0.000000000000000E+000	0.0941249	0.0000000E+000	0.000000000000000E+000	0.0061704
2	0	0	0	0	0	0	60.1484	-1.00001	-1.00044	-6.17294	-0.34502	-0.34502	11	-0.0958389	0	0.0958389	0.000000000000000E+000	0.0958389	0.0000000E+000	0.000000000000000E+000	0.00617565
2	0	0	0	0	0	0	61.1484	-1.00001	-1.00052	-6.16132	-0.351184	-0.351184	11	-0.0975511	0	0.0975511	0.000000000000000E+000	0.0975511	0.0000000E+000	0.000000000000000E+000	0.0061645
2	0	0	0	0	0	0	62.1484	-1.00001	-1.00021	-6.1583	-0.357347	-0.357347	11	-0.0992631	0	0.0992631	0.000000000000000E+000	0.0992631	0.0000000E+000	0.000000000000000E+000	0.00615959
2	0	0	0	0	0	0	63.1484	-1.00001	-1.00015	-6.15757	-0.363502	-0.363502	11	-0.100973	0	0.100973	0.000000000000000E+000	0.100973	0.0000000E+000	0.000000000000000E+000	0.00615851
2	0	0	0	0	0	0	64.1484	-1.00001	-1.00055	-6.15213	-0.369656	-0.369656	11	-0.102682	0	0.102682	0.000000000000000E+000	0.102682	0.0000000E+000	0.000000000000000E+000	0.00615553
2	0	0	0	0	0	0	65.1484	-1.00001	-1.00042	-6.14685	-0.375806	-0.375806	11	-0.104391	0	0.104391	0.000000000000000E+000	0.104391	0.0000000E+000	0.000000000000000E+000	0.00614943
2	0	0	0	0	0	0	66.1484	-1.00001	-1.00023	-6.15302	-0.381955	-0.381955	11	-0.106098	0	0.106098	0.000000000000000E+000	0.106098	0.0000000E+000	0.000000000000000E+000	0.00615443
2	0	0	0	0	0	0	67.1484	-1.00001	-1.00019	-6.15253	-0.388107	-0.388107	11	-0.107808	0	0.107808	0.000000000000000E+000	0.107808	0.0000000E+000	0.000000000000000E+000	0.0061537
2	0	0	0	0	0	0	68.1484	-1.00001	-1.00032	-6.14554	-0.394256	-0.394256	11	-0.109516	0	0.109516	0.000000000000000E+000	0.109516	0.0000000E+000	0.000000000000000E+000	0.00614753
2	0	0	0	0	0	0	69.1484	-1.00001	-1.00059	-6.14762	-0.400403	-0.400403	11	-0.111223	0	0.111223	0.000000000000000E+000	0.111223	0.0000000E+000	0.000000000000000E+000	0.00615126
2	0	0	0	0	0	0	70.1484	-1.00001	-1.00038	-6.14893	-0.406549	-0.406549	11	-0.11293	0	0.11293	0.000000000000000E+000	0.11293	0.0000000E+000	0.000000000000000E+000	0.00615127
2	0	0	0	0	0	0	71.1484	-1.00001	-1.00063	-6.14861	-0.412696	-0.412696	11	-0.114638	0	0.114638	0.000000000000000E+000	0.114638	0.0000000E+000	0.000000000000000E+000	0.00615249
2	0	0	0	0	0	0	72.1484	-1.00001	-1.00036	-6.1483	-0.418846	-0.418846	11	-0.116346	0	0.116346	0.000000000000000E+000	0.116346	0.0000000E+000	0.000000000000000E+000	0.00615053
2	0	0	0	0	0	0	73.1484	-1.00001	-1.00017	-6.14934	-0.424996	-0.424996	11	-0.118054	0	0.118054	0.000000000000000E+000	0.118054	0.0000000E+000	0.000000000000000E+000	0.0061504
2	0	0	0	0	0	0	74.1484	-1.00001	-1.00042	-6.13618	-0.431136	-0.431136	11	-0.11976	0	0.11976	0.000000000000000E+000	0.11976	0.0000000E+000	0.000000000000000E+000	0.00613876
2	0	0	0	0	0	0	75.1484	-1.00001	-1.00025	-6.12753	-0.43727	-0.43727	11	-0.121464	0	0.121464	0.000000000000000E+000	0.121464	0.0000000E+000	0.000000000000000E+000	0.00612905
2	0	0	0	0	0	0	76.1484	-1.00001	-1.00061	-5.77422	-0.442996	-0.442996	11	-0.123054	0	0.123054	0.000000000000000E+000	0.123054	0.0000000E+000	0.000000000000000E+000	0.00577774
2	0	0	0	0	0	0	77.1484	-1.00001	-1.00027	-5.81859	-0.448818	-0.448818	11	-0.124672	0	0.124672	0.000000000000000E+000	0.124672	0.0000000E+000	0.000000000000000E+000	0.00582015
2	0	0	0	0	0	0	78.1484	-1.00001	-1.00004	-5.81869	-0.45464	-0.45464	11	-0.126289	0	0.126289	0.000000000000000E+000	0.126289	0.0000000E+000	0.000000000000000E+000	0.00581891
2	0	0	0	0	0	0	79.1484	-1.00001	-1.00038	-5.81955	-0.460463	-0.460463	11	-0.127907	0	0.127907	0.000000000000000E+000	0.127907	0.0000000E+000	0.000000000000000E+000	0.00582177
2	0	0	0	0	0	0	80.1484	-1.00001	-1.00034	-5.81958	-0.466289	-0.466289	11	-0.129525	0	0.129525	0.000000000000000E+000	0.129525	0.0000000E+000	0.000000000000000E+000	0.00582158
2	0	0	0	0	0	0	81.1484	-1.00001	-1.00038	-5.8195	-0.472112	-0.472112	11	-0.131142	0	0.131142	0.000000000000000E+000	0.131142	0.0000000E+000	0.000000000000000E+000	0.00582172
2	0	0	0	0	0	0	82.1484	-1.00001	-1.00032	-5.82262	-0.477932	-0.477932	11	-0.132759	0	0.132759	0.000000000000000E+000	0.132759	0.0000000E+000	0.000000000000000E+000	0.0058245
2	0	0	0	0	0	0	83.1484	-1.00001	-1.00042	-5.81973	-0.48375	-0.48375	11	-0.134375	0	0.134375	0.000000000000000E+000	0.134375	0.0000000E+000	0.000000000000000E+000	0.00582217
2	0	0	0	0	0	0	84.1484	-1.00001	-1.00019	-5.82103	-0.489565	-0.489565	11	-0.13599	0	0.13599	0.000000000000000E+000	0.13599	0.0000000E+000	0.000000000000000E+000	0.00582214
2	0	0	0	0	0	0	85.1484	-1.00001	-1.00027	-5.81898	-0.495377	-0.495377	11	-0.137605	0	0.137605	0.000000000000000E+000	0.137605	0.0000000E+000	0.000000000000000E+000	0.00582054
2	0	0	0	0	0	0	86.1484	-1.00001	-1.00025	-5.81577	-0.501188	-0.501188	11	-0.139219	0	0.139219	0.000000000000000E+000	0.139219	0.0000000E+000	0.000000000000000E+000	0.00581721
2	0	0	0	0	0	0	87.1484	-1.00001	-1.00013	-5.55548	-0.506889	-0.506889	11	-0.140803	0	0.140803	0.000000000000000E+000	0.140803	0.0000000E+000	0.000000000000000E+000	0.00555622
2	0	0	0	0	0	0	88.1484	-1.00001	-1.00029	-5.51405	-0.512399	-0.512399	11	-0.142333	0	0.142333	0.000000000000000E+000	0.142333	0.0000000E+000	0.000000000000000E+000	0.00551562
2	0	0	0	0	0	0	89.1484	-1.00001	-1.00071	-5.51855	-0.517914	-0.517914	11	-0.143865	0	0.143865	0.000000000000000E+000	0.143865	0.0000000E+000	0.000000000000000E+000	0.00552245
2	0	0	0	0	0	0	90.1484	-1.00001	-1.00032	-5.51774	-0.523434	-0.523434	11	-0.145398	0	0.145398	0.000000000000000E+000	0.145398	0.0000000E+000	0.000000000000000E+000	0.00551953
2	0	0	0	0	0	0	91.1484	-1.00001	-1.00027	-5.52006	-0.528953	-0.528953	11	-0.146931	0	0.146931	0.000000000000000E+000	0.146931	0.0000000E+000	0.000000000000000E+000	0.00552153
2	0	0	0	0	0	0	92.1484	-1.00001	-1.00048	-5.51851	-0.534474	-0.534474	11	-0.148465	0	0.148465	0.000000000000000E+000	0.148465	0.0000000E+000	0.000000000000000E+000	0.00552114
2	0	0	0	0	0	0	93.1484	-1.00001	-1.00017	-5.51236	-0.539993	-0.539993	11	-0.149998	0	0.149998	0.000000000000000E+000	0.149998	0.0000000E+000	0.000000000000000E+000	0.00551331
2	0	0	0	0	0	0	94.1484	-1.00001	-1.00042	-5.51799	-0.54551	-0.54551	11	-0.151531	0	0.151531	0.000000000000000E+000	0.151531	0.0000000E+000	0.000000000000000E+000	0.0055203
2	0	0	0	0	0	0	95.1484	-1.00001	-1.00032	-5.52269	-0.551027	-0.551027	11	-0.153063	0	0.153063	0.000000000000000E+000	0.153063	0.0000000E+000	0.000000000000000E+000	0.00552449
2	0	0	0	0	0	0	96.1484	-1.00001	-1.00029	-5.51933	-0.556547	-0.556547	11	-0.154596	0	0.154596	0.000000000000000E+000	0.154596	0.0000000E+000	0.000000000000000E+000	0.00552091
2	0	0	0	0	0	0	97.1484	-1.00001	-1.00042	-5.51566	-0.562064	-0.562064	11	-0.156129	0	0.156129	0.000000000000000E+000	0.156129	0.0000000E+000	0.000000000000000E+000	0.00551798
2	0	0	0	0	0	0	98.1484	-1.00001	-1.00021	-5.51256	-0.56758	-0.56758	11	-0.157661	0	0.157661	0.000000000000000E+000	0.157661	0.0000000E+000	0.000000000000000E+000	0.00551372
2	0	0	0	0	0	0	99.1484	-1.00001	-1.00021	-5.50758	-0.573093	-0.573093	11	-0.159192	0	0.159192	0.000000000000000E+000	0.159192	0.0000000E+000	0.000000000000000E+000	0.00550873
2	0	0	0	0	0	0	100.148	-1.00001	-1.00046	-5.51549	-0.578606	-0.578606	11	-0.160724	0	0.160724	0.000000000000000E+000	0.160724	0.0000000E+000	0.000000000000000E+000	0.00551802
2	0	0	0	0	0	0	101.148	-1.00001	-1.00032	-5.51011	-0.584115	-0.584115	11	-0.162254	0	0.162254	0.000000000000000E+000	0.162254	0.0000000E+000	0.000000000000000E+000	0.0055119
2	0	0	0	0	0	0	102.148	-1.00001	-1.00029	-5.50888	-0.589622	-0.589622	11	-0.163784	0	0.163784	0.000000000000000E+000	0.163784	0.0000000E+000	0.000000000000000E+000	0.00551045
2	0	0	0	0	0	0	103.148	-1.00001	-1.00025	-5.50887	-0.595128	-0.595128	11	-0.165313	0	0.165313	0.000000000000000E+000	0.165313	0.0000000E+000	0.000000000000000E+000	0.00551024
2	0	0	0	0	0	0	104.148	-1.00001	-1.00055	-5.50614	-0.600632	-0.600632	11	-0.166842	0	0.166842	0.000000000000000E+000	0.166842	0.0000000E+000	0.000000000000000E+000	0.00550918
2	0	0	0	0	0	0	105.148	-1.00001	-1.00044	-5.5079	-0.606139	-0.606139	11	-0.168372	0	0.168372	0.000000000000000E+000	0.168372	0.0000000E+000	0.000000000000000E+000	0.00551031
2	0	0	0	0	0	0	106.148	-1.00001	-1.00044	-5.50574	-0.611645	-0.611645	11	-0.169901	0	0.169901	0.000000000000000E+000	0.169901	0.0000000E+000	0.000000000000000E+000	0.00550816
2	0	0	0	0	0	0	107.148	-1.00001	-1.00029	-4.92877	-0.616915	-0.616915	11	-0.171365	0	0.171365	0.000000000000000E+000	0.171365	0.0000000E+000	0.000000000000000E+000	0.00493018
2	0	0	0	0	0	0	108.148	-1.00001	-1.00011	-4.78664	-0.621732	-0.621732	11	-0.172703	0	0.172703	0.000000000000000E+000	0.172703	0.0000000E+000	0.000000000000000E+000	0.00478719
2	0	0	0	0	0	0	109.148	-1.00001	-1.00038	-4.76584	-0.626507	-0.626507	11	-0.17403	0	0.17403	0.000000000000000E+000	0.17403	0.0000000E+000	0.000000000000000E+000	0.00476766
2	0	0	0	0	0	0	110.148	-1.00001	-1.00038	-4.77063	-0.631277	-0.631277	11	-0.175355	0	0.175355	0.000000000000000E+000	0.175355	0.0000000E+000	0.000000000000000E+000	0.00477245
2	0	0	0	0	0	0	111.148	-1.00001	-1.00046	-4.7655	-0.636048	-0.636048	11	-0.17668	0	0.17668	0.000000000000000E+000	0.17668	0.0000000E+000	0.000000000000000E+000	0.00476769
2	0	0	0	0	0	0	112.148	-1.00001	-1.00029	-4.76409	-0.640812	-0.640812	11	-0.178003	0	0.178003	0.000000000000000E+000	0.178003	0.0000000E+000	0.000000000000000E+000	0.00476545
2	0	0	0	0	0	0	113.148	-1.00001	-1.00042	-4.76912	-0.645577	-0.645577	11	-0.179327	0	0.179327	0.000000000000000E+000	0.179327	0.0000000E+000	0.000000000000000E+000	0.00477112
2	0	0	0	0	0	0	114.148	-1.00001	-1.00031	-4.76259	-0.650342	-0.650342	11	-0.180651	0	0.180651	0.000000000000000E+000	0.180651	0.0000000E+000	0.000000000000000E+000	0.00476404
2	0	0	0	0	0	0	115.148	-1.00001	-1.00042	-4.76719	-0.655105	-0.655105	11	-0.181974	0	0.181974	0.000000000000000E+000	0.181974	0.0000000E+000	0.000000000000000E+000	0.00476919
2	0	0	0	0	0	0	116.148	-1.00001	-1.0004	-4.76531	-0.659871	-0.659871	11	-0.183297	0	0.183297	0.000000000000000E+000	0.183297	0.0000000E+000	0.000000000000000E+000	0.00476722
2	0	0	0	0	0	0	117.148	-1.00001	-1.00023	-4.75918	-0.664633	-0.664633	11	-0.18462	0	0.18462	0.000000000000000E+000	0.18462	0.0000000E+000	0.000000000000000E+000	0.00476027
2	0	0	0	0	0	0	118.148	-1.00001	-1.00021	-4.75683	-0.669389	-0.669389	11	-0.185942	0	0.185942	0.000000000000000E+000	0.185942	0.0000000E+000	0.000000000000000E+000	0.00475783
2	0	0	0	0	0	0	119.148	-1.00001	-1.00038	-4.75849	-0.67415	-0.67415	11	-0.187264	0	0.187264	0.000000000000000E+000	0.187264	0.0000000E+000	0.000000000000000E+000	0.0047603
2	0	0	0	0	0	0	120.148	-1.00001	-1.00032	-4.75117	-0.678905	-0.678905	11	-0.188585	0	0.188585	0.000000000000000E+000	0.188585	0.0000000E+000	0.000000000000000E+000	0.00475271
2	0	0	0	0	0	0	121.148	-1.00001	-1.00044	-4.76078	-0.683659	-0.683659	11	-0.189905	0	0.189905	0.000000000000000E+000	0.189905	0.0000000E+000	0.000000000000000E+000	0.00476287
2	0	0	0	0	0	0	122.148	-1.00001	-1.0004	-4.76395	-0.688422	-0.688422	11	-0.191228	0	0.191228	0.000000000000000E+000	0.191228	0.0000000E+000	0.000000000000000E+000	0.00476586
2	0	0	0	0	0	0	123.148	-1.00001	-1.00032	-4.21927	-0.692898	-0.692898	11	-0.192472	0	0.192472	0.000000000000000E+000	0.192472	0.0000000E+000	0.000000000000000E+000	0.00422064
2	0	0	0	0	0	0	124.148	-1.00001	-1.0004	-4.14229	-0.697055	-0.697055	11	-0.193626	0	0.193626	0.000000000000000E+000	0.193626	0.0000000E+000	0.000000000000000E+000	0.00414395
2	0	0	0	0	0	0	125.148	-1.00001	-1.00032	-4.12648	-0.701188	-0.701188	11	-0.194774	0	0.194774	0.000000000000000E+000	0.194774	0.0000000E+000	0.000000000000000E+000	0.00412782
2	0	0	0	0	0	0	126.148	-1.00001	-1.00044	-4.12643	-0.705318	-0.705318	11	-0.195922	0	0.195922	0.000000000000000E+000	0.195922	0.0000000E+000	0.000000000000000E+000	0.00412824
2	0	0	0	0	0	0	127.148	-1.00001	-1.00036	-4.12387	-0.709447	-0.709447	11	-0.197069	0	0.197069	0.000000000000000E+000	0.197069	0.0000000E+000	0.000000000000000E+000	0.00412536
2	0	0	0	0	0	0	128.148	-1.00001	-1.00027	-4.1293	-0.713574	-0.713574	11	-0.198215	0	0.198215	0.000000000000000E+000	0.198215	0.0000000E+000	0.000000000000000E+000	0.0041304
2	0	0	0	0	0	0	129.148	-1.00001	-1.00029	-4.1264	-0.717698	-0.717698	11	-0.199361	0	0.199361	0.000000000000000E+000	0.199361	0.0000000E+000	0.000000000000000E+000	0.00412758
2	0	0	0	0	0	0	130.148	-1.00001	-1.00044	-4.11756	-0.72182	-0.72182	11	-0.200506	0	0.200506	0.000000000000000E+000	0.200506	0.0000000E+000	0.000000000000000E+000	0.00411937
2	0	0	0	0	0	0	131.148	-1.00001	-1.0004	-4.1209	-0.725943	-0.725943	11	-0.201651	0	0.201651	0.000000000000000E+000	0.201651	0.0000000E+000	0.000000000000000E+000	0.00412255
2	0	0	0	0	0	0	132.148	-1.00001	-1.00029	-4.12777	-0.730065	-0.730065	11	-0.202796	0	0.202796	0.000000000000000E+000	0.202796	0.0000000E+000	0.000000000000000E+000	0.00412895
2	0	0	0	0	0	0	133.148	-1.00001	-1.00036	-4.11487	-0.734185	-0.734185	11	-0.20394	0	0.20394	0.000000000000000E+000	0.20394	0.0000000E+000	0.000000000000000E+000	0.00411636
2	0	0	0	0	0	0	134.148	-1.00001	-1.00044	-4.11336	-0.738304	-0.738304	11	-0.205084	0	0.205084	0.000000000000000E+000	0.205084	0.0000000E+000	0.000000000000000E+000	0.00411516
2	0	0	0	0	0	0	135.148	-1.00001	-1.00048	-4.12459	-0.74242	-0.74242	11	-0.206228	0	0.206228	0.000000000000000E+000	0.206228	0.0000000E+000	0.000000000000000E+000	0.00412656
2	0	0	0	0	0	0	136.148	-1.00001	-1.00025	-3.50624	-0.74632	-0.74632	11	-0.207311	0	0.207311	0.000000000000000E+000	0.207311	0.0000000E+000	0.000000000000000E+000	0.00350711
2	0	0	0	0	0	0	137.148	-1.00001	-1.00034	-3.37174	-0.749704	-0.749704	11	-0.208251	0	0.208251	0.000000000000000E+000	0.208251	0.0000000E+000	0.000000000000000E+000	0.0033729
2	0	0	0	0	0	0	138.148	-1.00001	-1.00032	-3.36924	-0.753073	-0.753073	11	-0.209187	0	0.209187	0.000000000000000E+000	0.209187	0.0000000E+000	0.000000000000000E+000	0.00337033
2	0	0	0	0	0	0	139.148	-1.00001	-1.00038	-3.37089	-0.756445	-0.756445	11	-0.210124	0	0.210124	0.000000000000000E+000	0.210124	0.0000000E+000	0.000000000000000E+000	0.00337218
2	0	0	0	0	0	0	140.148	-1.00001	-1.00044	-3.36868	-0.759816	-0.759816	11	-0.21106	0	0.21106	0.000000000000000E+000	0.21106	0.0000000E+000	0.000000000000000E+000	0.00337016
2	0	0	0	0	0	0	141.148	-1.00001	-1.00038	-3.37119	-0.763187	-0.763187	11	-0.211996	0	0.211996	0.000000000000000E+000	0.211996	0.0000000E+000	0.000000000000000E+000	0.00337248
2	0	0	0	0	0	0	142.148	-1.00001	-1.00048	-3.3706	-0.766558	-0.766558	11	-0.212933	0	0.212933	0.000000000000000E+000	0.212933	0.0000000E+000	0.000000000000000E+000	0.00337221
2	0	0	0	0	0	0	143.148	-1.00001	-1.00048	-3.36759	-0.769928	-0.769928	11	-0.213869	0	0.213869	0.000000000000000E+000	0.213869	0.0000000E+000	0.000000000000000E+000	0.0033692
2	0	0	0	0	0	0	144.148	-1.00001	-1.00048	-3.37607	-0.773301	-0.773301	11	-0.214806	0	0.214806	0.000000000000000E+000	0.214806	0.0000000E+000	0.000000000000000E+000	0.00337768
2	0	0	0	0	0	0	145.148	-1.00001	-1.0004	-3.37014	-0.776671	-0.776671	11	-0.215742	0	0.215742	0.000000000000000E+000	0.215742	0.0000000E+000	0.000000000000000E+000	0.00337149
2	0	0	0	0	0	0	146.148	-1.00001	-1.0004	-3.36285	-0.780042	-0.780042	11	-0.216678	0	0.216678	0.000000000000000E+000	0.216678	0.0000000E+000	0.000000000000000E+000	0.0033642
2	0	0	0	0	0	0	147.148	-1.00001	-1.00027	-3.07627	-0.783268	-0.783268	11	-0.217574	0	0.217574	0.000000000000000E+000	0.217574	0.0000000E+000	0.000000000000000E+000	0.00307709
2	0	0	0	0	0	0	148.148	-1.00001	-1.00029	-2.89263	-0.786218	-0.786218	11	-0.218394	0	0.218394	0.000000000000000E+000	0.218394	0.0000000E+000	0.000000000000000E+000	0.00289346
2	0	0	0	0	0	0	149.148	-1.00001	-1.00052	-2.86113	-0.78909	-0.78909	11	-0.219192	0	0.219192	0.000000000000000E+000	0.219192	0.0000000E+000	0.000000000000000E+000	0.00286261
2	0	0	0	0	0	0	150.148	-1.00001	-1.00036	-2.85954	-0.791952	-0.791952	11	-0.219987	0	0.219987	0.000000000000000E+000	0.219987	0.0000000E+000	0.000000000000000E+000	0.00286058
2	0	0	0	0	0	0	151.148	-1.00001	-1.00031	-2.86387	-0.794813	-0.794813	11	-0.220781	0	0.220781	0.000000000000000E+000	0.220781	0.0000000E+000	0.000000000000000E+000	0.00286475
2	0	0	0	0	0	0	152.148	-1.00001	-1.0004	-2.8609	-0.797674	-0.797674	11	-0.221576	0	0.221576	0.000000000000000E+000	0.221576	0.0000000E+000	0.000000000000000E+000	0.00286205
2	0	0	0	0	0	0	153.148	-1.00001	-1.00025	-2.86137	-0.800536	-0.800536	11	-0.222371	0	0.222371	0.000000000000000E+000	0.222371	0.0000000E+000	0.000000000000000E+000	0.00286208
2	0	0	0	0	0	0	154.148	-1.00001	-1.00029	-2.86422	-0.803399	-0.803399	11	-0.223166	0	0.223166	0.000000000000000E+000	0.223166	0.0000000E+000	0.000000000000000E+000	0.00286504
2	0	0	0	0	0	0	155.148	-1.00001	-1.00038	-2.86018	-0.806261	-0.806261	11	-0.223961	0	0.223961	0.000000000000000E+000	0.223961	0.0000000E+000	0.000000000000000E+000	0.00286127
2	0	0	0	0	0	0	156.148	-1.00001	-1.00034	-2.8653	-0.809124	-0.809124	11	-0.224757	0	0.224757	0.000000000000000E+000	0.224757	0.0000000E+000	0.000000000000000E+000	0.00286629
2	0	0	0	0	0	0	157.148	-1.00001	-1.00038	-2.86136	-0.811987	-0.811987	11	-0.225552	0	0.225552	0.000000000000000E+000	0.225552	0.0000000E+000	0.000000000000000E+000	0.00286245
2	0	0	0	0	0	0	158.148	-1.00001	-1.00038	-2.86393	-0.814851	-0.814851	11	-0.226348	0	0.226348	0.000000000000000E+000	0.226348	0.0000000E+000	0.000000000000000E+000	0.00286503
2	0	0	0	0	0	0	159.148	-1.00001	-1.00042	-2.44383	-0.817592	-0.817592	11	-0.227109	0	0.227109	0.000000000000000E+000	0.227109	0.0000000E+000	0.000000000000000E+000	0.00244486
2	0	0	0	0	0	0	160.148	-1.00001	-1.0004	-1.9336	-0.819698	-0.819698	11	-0.227694	0	0.227694	0.000000000000000E+000	0.227694	0.0000000E+000	0.000000000000000E+000	0.00193438
2	0	0	0	0	0	0	161.148	-1.00001	-1.00029	-1.8244	-0.821559	-0.821559	11	-0.228211	0	0.228211	0.000000000000000E+000	0.228211	0.0000000E+000	0.000000000000000E+000	0.00182493
2	0	0	0	0	0	0	162.148	-1.00001	-1.0005	-1.79478	-0.823365	-0.823365	11	-0.228713	0	0.228713	0.000000000000000E+000	0.228713	0.0000000E+000	0.000000000000000E+000	0.00179567
2	0	0	0	0	0	0	163.148	-1.00001	-1.00032	-1.77803	-0.82515	-0.82515	11	-0.229208	0	0.229208	0.000000000000000E+000	0.229208	0.0000000E+000	0.000000000000000E+000	0.0017786
2	0	0	0	0	0	0	164.148	-1.00001	-1.00034	-1.76857	-0.826924	-0.826924	11	-0.229701	0	0.229701	0.000000000000000E+000	0.229701	0.0000000E+000	0.000000000000000E+000	0.00176918
2	0	0	0	0	0	0	165.148	-1.00001	-1.00038	-1.78011	-0.828691	-0.828691	11	-0.230192	0	0.230192	0.000000000000000E+000	0.230192	0.0000000E+000	0.000000000000000E+000	0.00178079
2	0	0	0	0	0	0	166.148	-1.00001	-1.00044	-1.9977	-0.830587	-0.830587	11	-0.230719	0	0.230719	0.000000000000000E+000	0.230719	0.0000000E+000	0.000000000000000E+000	0.00199858
2	0	0	0	0	0	0	167.148	-1.00001	-1.00038	-2.12586	-0.832666	-0.832666	11	-0.231296	0	0.231296	0.000000000000000E+000	0.231296	0.0000000E+000	0.000000000000000E+000	0.00212667
2	0	0	0	0	0	0	168.148	-1.00001	-1.0004	-2.16751	-0.834817	-0.834817	11	-0.231894	0	0.231894	0.000000000000000E+000	0.231894	0.0000000E+000	0.000000000000000E+000	0.00216838
2	0	0	0	0	0	0	169.148	-1.00001	-1.00038	-2.17833	-0.836992	-0.836992	11	-0.232498	0	0.232498	0.000000000000000E+000	0.232498	0.0000000E+000	0.000000000000000E+000	0.00217916
2	0	0	0	0	0	0	170.148	-1.00001	-1.00044	-2.18067	-0.839172	-0.839172	11	-0.233103	0	0.233103	0.000000000000000E+000	0.233103	0.0000000E+000	0.000000000000000E+000	0.00218163
2	0	0	0	0	0	0	171.148	-1.00001	-1.00052	-2.18082	-0.841354	-0.841354	11	-0.23371	0	0.23371	0.000000000000000E+000	0.23371	0.0000000E+000	0.000000000000000E+000	0.00218194
2	0	0	0	0	0	0	172.148	-1.00001	-1.00031	-2.2055	-0.843541	-0.843541	11	-0.234317	0	0.234317	0.000000000000000E+000	0.234317	0.0000000E+000	0.000000000000000E+000	0.00220617
2	0	0	0	0	0	0	173.148	-1.00001	-1.00032	-2.3208	-0.845818	-0.845818	11	-0.234949	0	0.234949	0.000000000000000E+000	0.234949	0.0000000E+000	0.000000000000000E+000	0.00232155
2	0	0	0	0	0	0	174.148	-1.00001	-1.00046	-2.35652	-0.848163	-0.848163	11	-0.235601	0	0.235601	0.000000000000000E+000	0.235601	0.0000000E+000	0.000000000000000E+000	0.0023576
2	0	0	0	0	0	0	175.148	-1.00001	-1.0004	-2.37172	-0.850525	-0.850525	11	-0.236257	0	0.236257	0.000000000000000E+000	0.236257	0.0000000E+000	0.000000000000000E+000	0.00237267
2	0	0	0	0	0	0	176.148	-1.00001	-1.00042	-2.4933	-0.852966	-0.852966	11	-0.236935	0	0.236935	0.000000000000000E+000	0.236935	0.0000000E+000	0.000000000000000E+000	0.00249435
2	0	0	0	0	0	0	177.148	-1.00001	-1.00029	-2.5317	-0.855486	-0.855486	11	-0.237635	0	0.237635	0.000000000000000E+000	0.237635	0.0000000E+000	0.000000000000000E+000	0.00253243
2	0	0	0	0	0	0	178.148	-1.00001	-1.00032	-2.53537	-0.85802	-0.85802	11	-0.238339	0	0.238339	0.000000000000000E+000	0.238339	0.0000000E+000	0.000000000000000E+000	0.0025362
2	0	0	0	0	0	0	179.148	-1.00001	-1.00038	-2.54116	-0.860559	-0.860559	11	-0.239044	0	0.239044	0.000000000000000E+000	0.239044	0.0000000E+000	0.000000000000000E+000	0.00254213
2	0	0	0	0	0	0	180.148	-1.00001	-1.0004	-2.54172	-0.8631	-0.8631	11	-0.23975	0	0.23975	0.000000000000000E+000	0.23975	0.0000000E+000	0.000000000000000E+000	0.00254274
2	0	0	0	0	0	0	181.148	-1.00001	-1.00031	-2.54296	-0.865643	-0.865643	11	-0.240456	0	0.240456	0.000000000000000E+000	0.240456	0.0000000E+000	0.000000000000000E+000	0.00254374
2	0	0	0	0	0	0	182.148	-1.00001	-1.00042	-2.54387	-0.868187	-0.868187	11	-0.241163	0	0.241163	0.000000000000000E+000	0.241163	0.0000000E+000	0.000000000000000E+000	0.00254494
2	0	0	0	0	0	0	183.148	-1.00001	-1.00042	-2.54166	-0.870729	-0.870729	11	-0.241869	0	0.241869	0.000000000000000E+000	0.241869	0.0000000E+000	0.000000000000000E+000	0.00254273
2	0	0	0	0	0	0	184.148	-1.00001	-1.00046	-2.53844	-0.873268	-0.873268	11	-0.242574	0	0.242574	0.000000000000000E+000	0.242574	0.0000000E+000	0.000000000000000E+000	0.0025396
2	0	0	0	0	0	0	185.148	-1.00001	-1.0004	-2.53722	-0.875806	-0.875806	11	-0.24328	0	0.24328	0.000000000000000E+000	0.24328	0.0000000E+000	0.000000000000000E+000	0.00253824
2	0	0	0	0	0	0	186.148	-1.00001	-1.00038	-2.54058	-0.878345	-0.878345	11	-0.243985	0	0.243985	0.000000000000000E+000	0.243985	0.0000000E+000	0.000000000000000E+000	0.00254155
2	0	0	0	0	0	0	187.148	-1.00001	-1.0005	-2.52768	-0.880879	-0.880879	11	-0.244689	0	0.244689	0.000000000000000E+000	0.244689	0.0000000E+000	0.000000000000000E+000	0.00252893
2	0	0	0	0	0	0	188.148	-1.00001	-1.00036	-3.56187	-0.884028	-0.884028	11	-0.245563	0	0.245563	0.000000000000000E+000	0.245563	0.0000000E+000	0.000000000000000E+000	0.00356317
2	0	0	0	0	0	0	189.148	-1.00001	-1.00044	-3.39811	-0.887504	-0.887504	11	-0.246529	0	0.246529	0.000000000000000E+000	0.246529	0.0000000E+000	0.000000000000000E+000	0.0033996
2	0	0	0	0	0	0	190.148	-1.00001	-1.00025	-3.36207	-0.890877	-0.890877	11	-0.247466	0	0.247466	0.000000000000000E+000	0.247466	0.0000000E+000	0.000000000000000E+000	0.0033629
2	0	0	0	0	0	0	191.148	-1.00001	-1.00031	-3.3639	-0.894239	-0.894239	11	-0.2484	0	0.2484	0.000000000000000E+000	0.2484	0.0000000E+000	0.000000000000000E+000	0.00336493
2	0	0	0	0	0	0	192.148	-1.00001	-1.00031	-3.35551	-0.897594	-0.897594	11	-0.249332	0	0.249332	0.000000000000000E+000	0.249332	0.0000000E+000	0.000000000000000E+000	0.00335654
2	0	0	0	0	0	0	193.148	-1.00001	-1.00052	-3.35677	-0.900952	-0.900952	11	-0.250264	0	0.250264	0.000000000000000E+000	0.250264	0.0000000E+000	0.000000000000000E+000	0.0033585
2	0	0	0	0	0	0	194.148	-1.00001	-1.00027	-3.35022	-0.904305	-0.904305	11	-0.251196	0	0.251196	0.000000000000000E+000	0.251196	0.0000000E+000	0.000000000000000E+000	0.00335112
2	0	0	0	0	0	0	195.148	-1.00001	-1.00029	-3.35681	-0.907656	-0.907656	11	-0.252127	0	0.252127	0.000000000000000E+000	0.252127	0.0000000E+000	0.000000000000000E+000	0.00335777
2	0	0	0	0	0	0	196.148	-1.00001	-1.0004	-3.21592	-0.910974	-0.910974	11	-0.253048	0	0.253048	0.000000000000000E+000	0.253048	0.0000000E+000	0.000000000000000E+000	0.00321721
2	0	0	0	0	0	0	197.148	-1.00001	-1.00034	-2.918	-0.913993	-0.913993	11	-0.253887	0	0.253887	0.000000000000000E+000	0.253887	0.0000000E+000	0.000000000000000E+000	0.00291901
2	0	0	0	0	0	0	198.148	-1.00001	-1.00042	-2.86197	-0.916872	-0.916872	11	-0.254687	0	0.254687	0.000000000000000E+000	0.254687	0.0000000E+000	0.000000000000000E+000	0.00286317
2	0	0	0	0	0	0	199.148	-1.00001	-1.00031	-2.86048	-0.919733	-0.919733	11	-0.255481	0	0.255481	0.000000000000000E+000	0.255481	0.0000000E+000	0.000000000000000E+000	0.00286136
2	0	0	0	0	0	0	200.148	-1.00001	-1.00046	-2.85483	-0.922591	-0.922591	11	-0.256275	0	0.256275	0.000000000000000E+000	0.256275	0.0000000E+000	0.000000000000000E+000	0.00285614
2	0	0	0	0	0	0	201.148	-1.00001	-1.00017	-2.8561	-0.92545	-0.92545	11	-0.257069	0	0.257069	0.000000000000000E+000	0.257069	0.0000000E+000	0.000000000000000E+000	0.00285659
2	0	0	0	0	0	0	202.148	-1.00001	-1.00036	-2.86127	-0.928308	-0.928308	11	-0.257863	0	0.257863	0.000000000000000E+000	0.257863	0.0000000E+000	0.000000000000000E+000	0.0028623
2	0	0	0	0	0	0	203.148	-1.00001	-1.00017	-2.85796	-0.931164	-0.931164	11	-0.258657	0	0.258657	0.000000000000000E+000	0.258657	0.0000000E+000	0.000000000000000E+000	0.00285845
2	0	0	0	0	0	0	204.148	-1.00001	-1.00031	-2.85737	-0.934023	-0.934023	11	-0.259451	0	0.259451	0.000000000000000E+000	0.259451	0.0000000E+000	0.000000000000000E+000	0.00285824
2	0	0	0	0	0	0	205.148	-1.00001	-1.00019	-2.98288	-0.936914	-0.936914	11	-0.260254	0	0.260254	0.000000000000000E+000	0.260254	0.0000000E+000	0.000000000000000E+000	0.00298344
2	0	0	0	0	0	0	206.148	-1.00001	-1.00032	-3.28739	-0.940065	-0.940065	11	-0.261129	0	0.261129	0.000000000000000E+000	0.261129	0.0000000E+000	0.000000000000000E+000	0.00328846
2	0	0	0	0	0	0	207.148	-1.00001	-1.00032	-3.35349	-0.943404	-0.943404	11	-0.262057	0	0.262057	0.000000000000000E+000	0.262057	0.0000000E+000	0.000000000000000E+000	0.00335458
2	0	0	0	0	0	0	208.148	-1.00001	-1.00021	-3.36687	-0.946766	-0.946766	11	-0.26299	0	0.26299	0.000000000000000E+000	0.26299	0.0000000E+000	0.000000000000000E+000	0.00336758
2	0	0	0	0	0	0	209.148	-1.00001	-1.00055	-3.3685	-0.95013	-0.95013	11	-0.263925	0	0.263925	0.000000000000000E+000	0.263925	0.0000000E+000	0.000000000000000E+000	0.00337037
2	0	0	0	0	0	0	210.148	-1.00001	-1.00036	-3.35853	-0.953493	-0.953493	11	-0.264859	0	0.264859	0.000000000000000E+000	0.264859	0.0000000E+000	0.000000000000000E+000	0.00335975
2	0	0	0	0	0	0	211.148	-1.00001	-1.00023	-3.35733	-0.956857	-0.956857	11	-0.265794	0	0.265794	0.000000000000000E+000	0.265794	0.0000000E+000	0.000000000000000E+000	0.00335809
2	0	0	0	0	0	0	212.148	-1.00001	-1.0005	-3.37753	-0.960223	-0.960223	11	-0.266729	0	0.266729	0.000000000000000E+000	0.266729	0.0000000E+000	0.000000000000000E+000	0.0033792
2	0	0	0	0	0	0	213.148	-1.00001	-1.00036	-3.49678	-0.963603	-0.963603	11	-0.267667	0	0.267667	0.000000000000000E+000	0.267667	0.0000000E+000	0.000000000000000E+000	0.00349805
2	0	0	0	0	0	0	214.148	-1.00001	-1.00042	-4.15475	-0.967631	-0.967631	11	-0.268786	0	0.268786	0.000000000000000E+000	0.268786	0.0000000E+000	0.000000000000000E+000	0.0041565
2	0	0	0	0	0	0	215.148	-1.00001	-1.00029	-4.11535	-0.971761	-0.971761	11	-0.269934	0	0.269934	0.000000000000000E+000	0.269934	0.0000000E+000	0.000000000000000E+000	0.00411652
2	0	0	0	0	0	0	216.148	-1.00001	-1.00042	-4.08713	-0.975856	-0.975856	11	-0.271071	0	0.271071	0.000000000000000E+000	0.271071	0.0000000E+000	0.000000000000000E+000	0.00408884
2	0	0	0	0	0	0	217.148	-1.00001	-1.00044	-4.08718	-0.979951	-0.979951	11	-0.272209	0	0.272209	0.000000000000000E+000	0.272209	0.0000000E+000	0.000000000000000E+000	0.00408897
2	0	0	0	0	0	0	218.148	-1.00001	-1.00044	-4.11052	-0.984044	-0.984044	11	-0.273345	0	0.273345	0.000000000000000E+000	0.273345	0.0000000E+000	0.000000000000000E+000	0.00411232
2	0	0	0	0	0	0	219.148	-1.00001	-1.00036	-4.08426	-0.988137	-0.988137	11	-0.274482	0	0.274482	0.000000000000000E+000	0.274482	0.0000000E+000	0.000000000000000E+000	0.00408574
2	0	0	0	0	0	0	220.148	-1.00001	-1.00034	-4.08534	-0.992232	-0.992232	11	-0.27562	0	0.27562	0.000000000000000E+000	0.27562	0.0000000E+000	0.000000000000000E+000	0.00408675
2	0	0	0	0	0	0	221.148	-1.00001	-1.00032	-4.10898	-0.996317	-0.996317	11	-0.276755	0	0.276755	0.000000000000000E+000	0.276755	0.0000000E+000	0.000000000000000E+000	0.00411032
2	0	0	0	0	0	0	222.148	-1.00001	-1.00069	-4.08118	-1.00041	-1.00041	11	-0.277892	0	0.277892	0.000000000000000E+000	0.277892	0.0000000E+000	0.000000000000000E+000	0.00408398
2	0	0	0	0	0	0	223.148	-1.00001	-1.00032	-4.09037	-1.00451	-1.00451	11	-0.27903	0	0.27903	0.000000000000000E+000	0.27903	0.0000000E+000	0.000000000000000E+000	0.00409169
2	0	0	0	0	0	0	224.148	-1.00001	-1.00036	-4.66259	-1.009	-1.009	11	-0.280278	0	0.280278	0.000000000000000E+000	0.280278	0.0000000E+000	0.000000000000000E+000	0.00466428
2	0	0	0	0	0	0	225.148	-1.00001	-1.00053	-4.7148	-1.0137	-1.0137	11	-0.281583	0	0.281583	0.000000000000000E+000	0.281583	0.0000000E+000	0.000000000000000E+000	0.00471732
2	0	0	0	0	0	0	226.148	-1.00001	-1.00044	-4.66313	-1.01839	-1.01839	11	-0.282887	0	0.282887	0.000000000000000E+000	0.282887	0.0000000E+000	0.000000000000000E+000	0.00466518
2	0	0	0	0	0	0	227.148	-1.00001	-1.00029	-4.7152	-1.02308	-1.02308	11	-0.284189	0	0.284189	0.000000000000000E+000	0.284189	0.0000000E+000	0.000000000000000E+000	0.00471655
2	0	0	0	0	0	0	228.148	-1.00001	-1.00044	-4.67939	-1.02777	-1.02777	11	-0.285493	0	0.285493	0.000000000000000E+000	0.285493	0.0000000E+000	0.000000000000000E+000	0.00468144
2	0	0	0	0	0	0	229.148	-1.00001	-1.00038	-4.71763	-1.03248	-1.03248	11	-0.286799	0	0.286799	0.000000000000000E+000	0.286799	0.0000000E+000	0.000000000000000E+000	0.00471943
2	0	0	0	0	0	0	230.148	-1.00001	-1.0005	-4.67529	-1.03717	-1.03717	11	-0.288102	0	0.288102	0.000000000000000E+000	0.288102	0.0000000E+000	0.000000000000000E+000	0.00467761
2	0	0	0	0	0	0	231.148	-1.00001	-1.00004	-5.38397	-1.04228	-1.04228	11	-0.289523	0	0.289523	0.000000000000000E+000	0.289523	0.0000000E+000	0.000000000000000E+000	0.00538418
2	0	0	0	0	0	0	232.148	-1.00001	-1.00025	-5.38595	-1.04767	-1.04767	11	-0.291021	0	0.291021	0.000000000000000E+000	0.291021	0.0000000E+000	0.000000000000000E+000	0.00538729
2	0	0	0	0	0	0	233.148	-1.00001	-1.00048	-5.38978	-1.05307	-1.05307	11	-0.292518	0	0.292518	0.000000000000000E+000	0.292518	0.0000000E+000	0.000000000000000E+000	0.00539235
2	0	0	0	0	0	0	234.148	-1.00001	-1.00046	-5.39789	-1.05846	-1.05846	11	-0.294017	0	0.294017	0.000000000000000E+000	0.294017	0.0000000E+000	0.000000000000000E+000	0.00540036
2	0	0	0	0	0	0	235.148	-1.00001	-1.00029	-5.4029	-1.06386	-1.06386	11	-0.295517	0	0.295517	0.000000000000000E+000	0.295517	0.0000000E+000	0.000000000000000E+000	0.00540445
2	0	0	0	0	0	0	236.148	-1.00001	-1.00034	-5.39278	-1.06925	-1.06925	11	-0.297015	0	0.297015	0.000000000000000E+000	0.297015	0.0000000E+000	0.000000000000000E+000	0.00539463
2	0	0	0	0	0	0	237.148	-1.00001	-1	-5.39347	-1.07464	-1.07464	11	-0.298512	0	0.298512	0.000000000000000E+000	0.298512	0.0000000E+000	0.000000000000000E+000	0.00539347
2	0	0	0	0	0	0	238.148	-1.00001	-1.00031	-5.39054	-1.08004	-1.08004	11	-0.30001	0	0.30001	0.000000000000000E+000	0.30001	0.0000000E+000	0.000000000000000E+000	0.00539219
2	0	0	0	0	0	0	239.148	-1.00001	-1.00032	-5.38903	-1.08543	-1.08543	11	-0.301508	0	0.301508	0.000000000000000E+000	0.301508	0.0000000E+000	0.000000000000000E+000	0.00539077
2	0	0	0	0	0	0	240.148	-1.00001	-1.00036	-5.40031	-1.09082	-1.09082	11	-0.303007	0	0.303007	0.000000000000000E+000	0.303007	0.0000000E+000	0.000000000000000E+000	0.00540227
2	0	0	0	0	0	0	241.148	-1.00001	-1.00034	-5.38999	-1.09622	-1.09622	11	-0.304505	0	0.304505	0.000000000000000E+000	0.304505	0.0000000E+000	0.000000000000000E+000	0.00539184
2	0	0	0	0	0	0	242.148	-1.00001	-1.00067	-5.58864	-1.10167	-1.10167	11	-0.30602	0	0.30602	0.000000000000000E+000	0.30602	0.0000000E+000	0.000000000000000E+000	0.00559238
2	0	0	0	0	0	0	243.148	-1.00001	-1.00046	-5.65658	-1.10734	-1.10734	11	-0.307594	0	0.307594	0.000000000000000E+000	0.307594	0.0000000E+000	0.000000000000000E+000	0.00565917
2	0	0	0	0	0	0	244.148	-1.00001	-1.00038	-5.65825	-1.113	-1.113	11	-0.309166	0	0.309166	0.000000000000000E+000	0.309166	0.0000000E+000	0.000000000000000E+000	0.00566041
2	0	0	0	0	0	0	245.148	-1.00001	-1.00067	-5.6544	-1.11865	-1.11865	11	-0.310736	0	0.310736	0.000000000000000E+000	0.310736	0.0000000E+000	0.000000000000000E+000	0.00565817
2	0	0	0	0	0	0	246.148	-1.00001	-1.00038	-5.65759	-1.1243	-1.1243	11	-0.312305	0	0.312305	0.000000000000000E+000	0.312305	0.0000000E+000	0.000000000000000E+000	0.00565975
2	0	0	0	0	0	0	247.148	-1.00001	-1.00029	-5.65546	-1.12994	-1.12994	11	-0.313873	0	0.313873	0.000000000000000E+000	0.313873	0.0000000E+000	0.000000000000000E+000	0.00565708
2	0	0	0	0	0	0	248.148	-1.00001	-1.00011	-5.64818	-1.13558	-1.13558	11	-0.31544	0	0.31544	0.000000000000000E+000	0.31544	0.0000000E+000	0.000000000000000E+000	0.00564883
2	0	0	0	0	0	0	249.148	-1.00001	-1.00053	-5.6489	-1.14122	-1.14122	11	-0.317007	0	0.317007	0.000000000000000E+000	0.317007	0.0000000E+000	0.000000000000000E+000	0.00565192
2	0	0	0	0	0	0	250.148	-1.00001	-1.00042	-5.64914	-1.14686	-1.14686	11	-0.318573	0	0.318573	0.000000000000000E+000	0.318573	0.0000000E+000	0.000000000000000E+000	0.00565152
2	0	0	0	0	0	0	251.148	-1.00001	-1.00042	-5.64049	-1.15251	-1.15251	11	-0.320141	0	0.320141	0.000000000000000E+000	0.320141	0.0000000E+000	0.000000000000000E+000	0.00564286
2	0	0	0	0	0	0	252.148	-1.00001	-1.00071	-5.63882	-1.15815	-1.15815	11	-0.321707	0	0.321707	0.000000000000000E+000	0.321707	0.0000000E+000	0.000000000000000E+000	0.0056428
2	0	0	0	0	0	0	253.148	-1.00001	-0.999885	-5.62957	-1.16379	-1.16379	11	-0.323274	0	0.323274	0.000000000000000E+000	0.323274	0.0000000E+000	0.000000000000000E+000	0.00562892
2	0	0	0	0	0	0	254.148	-1.00001	-0.99958	-5.63117	-1.16942	-1.16942	11	-0.32484	0	0.32484	0.000000000000000E+000	0.32484	0.0000000E+000	0.000000000000000E+000	0.00562881
2	0	0	0	0	0	0	255.148	-1.00001	-1.00038	-5.63726	-1.17506	-1.17506	11	-0.326407	0	0.326407	0.000000000000000E+000	0.326407	0.0000000E+000	0.000000000000000E+000	0.00563941
2	0	0	0	0	0	0	256.148	-1.00001	-1.00055	-5.63005	-1.18071	-1.18071	11	-0.327974	0	0.327974	0.000000000000000E+000	0.327974	0.0000000E+000	0.000000000000000E+000	0.00563316
2	0	0	0	0	0	0	257.148	-1.00001	-1.00046	-5.99287	-1.18651	-1.18651	11	-0.329586	0	0.329586	0.000000000000000E+000	0.329586	0.0000000E+000	0.000000000000000E+000	0.00599561
2	0	0	0	0	0	0	258.148	-1.00001	-1.00017	-5.91829	-1.19245	-1.19245	11	-0.331237	0	0.331237	0.000000000000000E+000	0.331237	0.0000000E+000	0.000000000000000E+000	0.00591931
2	0	0	0	0	0	0	259.148	-1.00001	-1.00042	-5.91477	-1.19837	-1.19837	11	-0.33288	0	0.33288	0.000000000000000E+000	0.33288	0.0000000E+000	0.000000000000000E+000	0.00591725
2	0	0	0	0	0	0	260.148	-1.00001	-0.999962	-5.91538	-1.20428	-1.20428	11	-0.334523	0	0.334523	0.000000000000000E+000	0.334523	0.0000000E+000	0.000000000000000E+000	0.00591515
2	0	0	0	0	0	0	261.148	-1.00001	-1.00019	-5.90731	-1.21019	-1.21019	11	-0.336165	0	0.336165	0.000000000000000E+000	0.336165	0.0000000E+000	0.000000000000000E+000	0.00590844
2	0	0	0	0	0	0	262.148	-1.00001	-1.00052	-5.89952	-1.2161	-1.2161	11	-0.337806	0	0.337806	0.000000000000000E+000	0.337806	0.0000000E+000	0.000000000000000E+000	0.00590256
2	0	0	0	0	0	0	263.148	-1.00001	-1.00053	-5.91409	-1.22201	-1.22201	11	-0.339448	0	0.339448	0.000000000000000E+000	0.339448	0.0000000E+000	0.000000000000000E+000	0.00591725
2	0	0	0	0	0	0	264.148	-1.00001	-1.00038	-5.9106	-1.22792	-1.22792	11	-0.341089	0	0.341089	0.000000000000000E+000	0.341089	0.0000000E+000	0.000000000000000E+000	0.00591286
2	0	0	0	0	0	0	265.148	-1.00001	-1.00021	-5.90611	-1.23383	-1.23383	11	-0.342731	0	0.342731	0.000000000000000E+000	0.342731	0.0000000E+000	0.000000000000000E+000	0.00590735
2	0	0	0	0	0	0	266.148	-1.00001	-1.00046	-5.91083	-1.23974	-1.23974	11	-0.344373	0	0.344373	0.000000000000000E+000	0.344373	0.0000000E+000	0.000000000000000E+000	0.00591354
2	0	0	0	0	0	0	267.148	-1.00001	-1.00032	-5.90778	-1.24565	-1.24565	11	-0.346013	0	0.346013	0.000000000000000E+000	0.346013	0.0000000E+000	0.000000000000000E+000	0.0059097
2	0	0	0	0	0	0	268.148	-1.00001	-1.00042	-5.90044	-1.25155	-1.25155	11	-0.347654	0	0.347654	0.000000000000000E+000	0.347654	0.0000000E+000	0.000000000000000E+000	0.00590291
2	0	0	0	0	0	0	269.148	-1.00001	-1.00038	-5.90259	-1.25745	-1.25745	11	-0.349293	0	0.349293	0.000000000000000E+000	0.349293	0.0000000E+000	0.000000000000000E+000	0.00590485
2	0	0	0	0	0	0	270.148	-1.00001	-1.00092	-5.89434	-1.26335	-1.26335	11	-0.35093	0	0.35093	0.000000000000000E+000	0.35093	0.0000000E+000	0.000000000000000E+000	0.00589974
2	0	0	0	0	0	0	271.148	-1.00001	-1.00055	-5.89289	-1.26925	-1.26925	11	-0.352568	0	0.352568	0.000000000000000E+000	0.352568	0.0000000E+000	0.000000000000000E+000	0.00589615
2	0	0	0	0	0	0	272.148	-1.00001	-1.00036	-5.89574	-1.27514	-1.27514	11	-0.354205	0	0.354205	0.000000000000000E+000	0.354205	0.0000000E+000	0.000000000000000E+000	0.00589788
2	0	0	0	0	0	0	273.148	-1.00001	-1.00063	-5.89259	-1.28103	-1.28103	11	-0.355842	0	0.355842	0.000000000000000E+000	0.355842	0.0000000E+000	0.000000000000000E+000	0.0058963
2	0	0	0	0	0	0	274.148	-1.00001	-1.00042	-5.88631	-1.28692	-1.28692	11	-0.357478	0	0.357478	0.000000000000000E+000	0.357478	0.0000000E+000	0.000000000000000E+000	0.00588878
2	0	0	0	0	0	0	275.148	-1.00001	-1.00046	-5.88303	-1.29281	-1.29281	11	-0.359113	0	0.359113	0.000000000000000E+000	0.359113	0.0000000E+000	0.000000000000000E+000	0.00588572
2	0	0	0	0	0	0	276.148	-1.00001	-1.0005	-5.88821	-1.29869	-1.29869	11	-0.360748	0	0.360748	0.000000000000000E+000	0.360748	0.0000000E+000	0.000000000000000E+000	0.00589114
2	0	0	0	0	0	0	277.148	-1.00001	-1.00038	-5.88656	-1.30458	-1.30458	11	-0.362383	0	0.362383	0.000000000000000E+000	0.362383	0.0000000E+000	0.000000000000000E+000	0.0058888
2	0	0	0	0	0	0	278.148	-1.00001	-1.00038	-5.88078	-1.31046	-1.31046	11	-0.364018	0	0.364018	0.000000000000000E+000	0.364018	0.0000000E+000	0.000000000000000E+000	0.00588302
2	0	0	0	0	0	0	279.148	-1.00001	-1.0004	-5.89022	-1.31635	-1.31635	11	-0.365654	0	0.365654	0.000000000000000E+000	0.365654	0.0000000E+000	0.000000000000000E+000	0.00589258
2	0	0	0	0	0	0	280.148	-1.00001	-1.00042	-5.88193	-1.32224	-1.32224	11	-0.367288	0	0.367288	0.000000000000000E+000	0.367288	0.0000000E+000	0.000000000000000E+000	0.0058844
2	0	0	0	0	0	0	281.148	-1.00001	-1.00036	-5.87288	-1.32812	-1.32812	11	-0.368922	0	0.368922	0.000000000000000E+000	0.368922	0.0000000E+000	0.000000000000000E+000	0.00587501
2	0	0	0	0	0	0	281.476	-1.00001	-0.999866	-5.89093	-1.33004	-1.33004	11	-0.369456	0	0.369456	0.000000000000000E+000	0.369456	0.0000000E+000	0.000000000000000E+000	0.00589014