File: ZnPVAECH_09 04-22-22-Zn -09 PVA ECH 1600 rpm K-L RDE1 gc_03_CA_C05(1).mpt
EC-Lab ASCII FILE
Nb header lines : 63

Chronoamperometry / Chronocoulometry

Run on channel : 5 (SN 6729)
User :
CE vs. WE compliance from -10 V to 10 V
Electrode connection : standard
Potential control : Ewe
Ewe ctrl range : min = -2.50 V, max = 2.50 V
Safety Limits :
	Do not start on E overload
Acquisition started on : 04/04/2022 13:04:27.143
Technique started on : 04/04/2022 13:08:40.435
Loaded Setting File :  NONE
Saved on :
	File : 04-22-22-Zn PVA ECH 1600 rpm K-L RDE1 gc_03_CA_C05.mpr
	Directory : \\research-scb.egr.msu.edu\research-scb\Mindy\Koutecky Levich\Zn PVA\ECH\04-04-22\
	Host : 35.9.136.210
Device : VSP (SN 0012)
Address : 35.9.137.65
EC-Lab for windows v11.43 (software)
Internet server v11.40 (firmware)
Command interpretor v11.40 (firmware)
Electrode material : Au/Pd
Initial state :
Electrolyte : NaCl (0.2M)
Comments : Fe(CN)63-/Fe(CN)64- 5.10-3 M
Reference electrode : SCE Saturated Calomel Electrode (0.241 V)
Electrode surface area : 0.196 cm²
Characteristic mass : 0.001 g
Equivalent Weight : 0.000 g/eq.
Density : 0.000 g/cm3
Volume (V) : 0.001 cm³
Cycle Definition : Charge/Discharge alternance
Ei (V)              -0.900
vs.                 Ref
ti (h:m:s)          0:10:0.0000
Imax                pass
unit Imax           mA
Imin                pass
unit Imin           mA
dQM                 0.000
unit dQM            mA.h
record              <I>
dI                  5.000
unit dI             µA
dQ                  0.000
unit dQ             mA.h
dt (s)              0.1000
dta (s)             0.1000
E range min (V)     -2.500
E range max (V)     2.500
I Range             Auto
I Range min         Unset
I Range max         Unset
I Range init        Unset
Bandwidth           5
goto Ns'            0
nc cycles           0

mode	ox/red	error	control changes	Ns changes	counter inc.	Ns	time/s	control/V	Ewe/V	<I>/mA	dQ/C	(Q-Qo)/C	I Range	Q charge/discharge/mA.h	half cycle	Q discharge/mA.h	Q charge/mA.h	Capacity/mA.h	Efficiency/%	cycle number	P/W
2	0	0	1	0	0	0	253.292	-0.899966	-0.900248	-4.69096	-0.000122553	-0.000122553	11	-3.40425e-05	0	3.40425e-05	0.000000000000000E+000	3.40425e-05	0.0000000E+000	0.000000000000000E+000	0.00422303
2	0	0	1	0	0	0	254.192	-0.899966	-0.900668	-4.59408	-0.00426893	-0.00426893	11	-0.00118581	0	0.00118581	0.000000000000000E+000	0.00118581	0.0000000E+000	0.000000000000000E+000	0.00413774
2	0	0	1	0	0	0	255.092	-0.899966	-0.900553	-4.59329	-0.00840486	-0.00840486	11	-0.00233468	0	0.00233468	0.000000000000000E+000	0.00233468	0.0000000E+000	0.000000000000000E+000	0.0041365
2	0	0	1	0	0	0	255.992	-0.899966	-0.900439	-4.5947	-0.0125399	-0.0125399	11	-0.00348331	0	0.00348331	0.000000000000000E+000	0.00348331	0.0000000E+000	0.000000000000000E+000	0.00413724
2	0	0	1	0	0	0	256.892	-0.899966	-0.900477	-4.59048	-0.0166756	-0.0166756	11	-0.00463211	0	0.00463211	0.000000000000000E+000	0.00463211	0.0000000E+000	0.000000000000000E+000	0.00413362
2	0	0	1	0	0	0	257.792	-0.899966	-0.900496	-4.58812	-0.020808	-0.020808	11	-0.00578	0	0.00578	0.000000000000000E+000	0.00578	0.0000000E+000	0.000000000000000E+000	0.00413158
2	0	0	1	0	0	0	258.692	-0.899966	-0.900324	-4.59093	-0.0249386	-0.0249386	11	-0.0069274	0	0.0069274	0.000000000000000E+000	0.0069274	0.0000000E+000	0.000000000000000E+000	0.00413333
2	0	0	1	0	0	0	259.592	-0.899966	-0.900248	-4.58691	-0.0290694	-0.0290694	11	-0.00807484	0	0.00807484	0.000000000000000E+000	0.00807484	0.0000000E+000	0.000000000000000E+000	0.00412936
2	0	0	1	0	0	0	260.492	-0.899966	-0.90042	-4.59261	-0.0332014	-0.0332014	11	-0.00922261	0	0.00922261	0.000000000000000E+000	0.00922261	0.0000000E+000	0.000000000000000E+000	0.00413527
2	0	0	1	0	0	0	261.392	-0.899966	-0.900592	-4.59517	-0.0373351	-0.0373351	11	-0.0103709	0	0.0103709	0.000000000000000E+000	0.0103709	0.0000000E+000	0.000000000000000E+000	0.00413838
2	0	0	1	0	0	0	262.292	-0.899966	-0.900611	-4.59044	-0.0414674	-0.0414674	11	-0.0115187	0	0.0115187	0.000000000000000E+000	0.0115187	0.0000000E+000	0.000000000000000E+000	0.0041342
2	0	0	1	0	0	0	263.192	-0.899966	-0.900706	-4.58829	-0.0455969	-0.0455969	11	-0.0126658	0	0.0126658	0.000000000000000E+000	0.0126658	0.0000000E+000	0.000000000000000E+000	0.0041327
2	0	0	1	0	0	0	264.092	-0.899966	-0.900611	-4.59333	-0.0497286	-0.0497286	11	-0.0138135	0	0.0138135	0.000000000000000E+000	0.0138135	0.0000000E+000	0.000000000000000E+000	0.0041368
2	0	0	1	0	0	0	264.992	-0.899966	-0.9	-4.59412	-0.0538627	-0.0538627	11	-0.0149619	0	0.0149619	0.000000000000000E+000	0.0149619	0.0000000E+000	0.000000000000000E+000	0.00413471
2	0	0	1	0	0	0	265.892	-0.899966	-0.90042	-4.59332	-0.0579953	-0.0579953	11	-0.0161098	0	0.0161098	0.000000000000000E+000	0.0161098	0.0000000E+000	0.000000000000000E+000	0.00413592
2	0	0	1	0	0	0	266.792	-0.899966	-0.900248	-4.59597	-0.0621282	-0.0621282	11	-0.0172578	0	0.0172578	0.000000000000000E+000	0.0172578	0.0000000E+000	0.000000000000000E+000	0.00413751
2	0	0	1	0	0	0	267.692	-0.899966	-0.900286	-4.5897	-0.0662576	-0.0662576	11	-0.0184049	0	0.0184049	0.000000000000000E+000	0.0184049	0.0000000E+000	0.000000000000000E+000	0.00413204
2	0	0	1	0	0	0	268.592	-0.899966	-0.900401	-4.58786	-0.0703865	-0.0703865	11	-0.0195518	0	0.0195518	0.000000000000000E+000	0.0195518	0.0000000E+000	0.000000000000000E+000	0.00413091
2	0	0	1	0	0	0	269.492	-0.899966	-0.900763	-4.5861	-0.0745123	-0.0745123	11	-0.0206979	0	0.0206979	0.000000000000000E+000	0.0206979	0.0000000E+000	0.000000000000000E+000	0.00413099
2	0	0	1	0	0	0	270.392	-0.899966	-0.900611	-4.32305	-0.0785593	-0.0785593	11	-0.021822	0	0.021822	0.000000000000000E+000	0.021822	0.0000000E+000	0.000000000000000E+000	0.00389339
2	0	0	1	0	0	0	271.292	-0.899966	-0.900458	-4.42584	-0.0825041	-0.0825041	11	-0.0229178	0	0.0229178	0.000000000000000E+000	0.0229178	0.0000000E+000	0.000000000000000E+000	0.00398528
2	0	0	1	0	0	0	272.192	-0.899966	-0.900458	-4.41271	-0.0864818	-0.0864818	11	-0.0240227	0	0.0240227	0.000000000000000E+000	0.0240227	0.0000000E+000	0.000000000000000E+000	0.00397346
2	0	0	1	0	0	0	273.092	-0.899966	-0.90042	-4.42571	-0.0904618	-0.0904618	11	-0.0251283	0	0.0251283	0.000000000000000E+000	0.0251283	0.0000000E+000	0.000000000000000E+000	0.003985
2	0	0	1	0	0	0	273.992	-0.899966	-0.90042	-4.41652	-0.0944396	-0.0944396	11	-0.0262332	0	0.0262332	0.000000000000000E+000	0.0262332	0.0000000E+000	0.000000000000000E+000	0.00397672
2	0	0	1	0	0	0	274.892	-0.899966	-0.900267	-4.42054	-0.0984185	-0.0984185	11	-0.0273385	0	0.0273385	0.000000000000000E+000	0.0273385	0.0000000E+000	0.000000000000000E+000	0.00397966
2	0	0	1	0	0	0	275.792	-0.899966	-0.900515	-4.41841	-0.102394	-0.102394	11	-0.0284429	0	0.0284429	0.000000000000000E+000	0.0284429	0.0000000E+000	0.000000000000000E+000	0.00397885
2	0	0	1	0	0	0	276.692	-0.899966	-0.900477	-4.4192	-0.106372	-0.106372	11	-0.0295478	0	0.0295478	0.000000000000000E+000	0.0295478	0.0000000E+000	0.000000000000000E+000	0.00397939
2	0	0	1	0	0	0	277.592	-0.899966	-0.900286	-4.42368	-0.11035	-0.11035	11	-0.0306528	0	0.0306528	0.000000000000000E+000	0.0306528	0.0000000E+000	0.000000000000000E+000	0.00398257
2	0	0	1	0	0	0	278.492	-0.899966	-0.90042	-4.41047	-0.114323	-0.114323	11	-0.0317564	0	0.0317564	0.000000000000000E+000	0.0317564	0.0000000E+000	0.000000000000000E+000	0.00397127
2	0	0	1	0	0	0	279.392	-0.899966	-0.900286	-4.4239	-0.118299	-0.118299	11	-0.0328608	0	0.0328608	0.000000000000000E+000	0.0328608	0.0000000E+000	0.000000000000000E+000	0.00398278
2	0	0	1	0	0	0	280.292	-0.899966	-0.900573	-4.40969	-0.122273	-0.122273	11	-0.0339648	0	0.0339648	0.000000000000000E+000	0.0339648	0.0000000E+000	0.000000000000000E+000	0.00397125
2	0	0	1	0	0	0	281.192	-0.899966	-0.900382	-4.42336	-0.126251	-0.126251	11	-0.0350698	0	0.0350698	0.000000000000000E+000	0.0350698	0.0000000E+000	0.000000000000000E+000	0.00398272
2	0	0	1	0	0	0	282.092	-0.899966	-0.900305	-4.39992	-0.130227	-0.130227	11	-0.0361743	0	0.0361743	0.000000000000000E+000	0.0361743	0.0000000E+000	0.000000000000000E+000	0.00396127
2	0	0	1	0	0	0	282.992	-0.899966	-0.900496	-4.26915	-0.134112	-0.134112	11	-0.0372532	0	0.0372532	0.000000000000000E+000	0.0372532	0.0000000E+000	0.000000000000000E+000	0.00384435
2	0	0	1	0	0	0	283.892	-0.899966	-0.900305	-4.27785	-0.13796	-0.13796	11	-0.0383222	0	0.0383222	0.000000000000000E+000	0.0383222	0.0000000E+000	0.000000000000000E+000	0.00385137
2	0	0	1	0	0	0	284.792	-0.899966	-0.900305	-4.28167	-0.14181	-0.14181	11	-0.0393917	0	0.0393917	0.000000000000000E+000	0.0393917	0.0000000E+000	0.000000000000000E+000	0.00385481
2	0	0	1	0	0	0	285.692	-0.899966	-0.900534	-4.27438	-0.14566	-0.14566	11	-0.0404611	0	0.0404611	0.000000000000000E+000	0.0404611	0.0000000E+000	0.000000000000000E+000	0.00384922
2	0	0	1	0	0	0	286.592	-0.899966	-0.900382	-4.27638	-0.149509	-0.149509	11	-0.0415303	0	0.0415303	0.000000000000000E+000	0.0415303	0.0000000E+000	0.000000000000000E+000	0.00385038
2	0	0	1	0	0	0	287.492	-0.899966	-0.900477	-4.28024	-0.153363	-0.153363	11	-0.0426009	0	0.0426009	0.000000000000000E+000	0.0426009	0.0000000E+000	0.000000000000000E+000	0.00385425
2	0	0	1	0	0	0	288.392	-0.899966	-0.900248	-4.2797	-0.157213	-0.157213	11	-0.0436704	0	0.0436704	0.000000000000000E+000	0.0436704	0.0000000E+000	0.000000000000000E+000	0.00385279
2	0	0	1	0	0	0	289.292	-0.899966	-0.900515	-4.2762	-0.161061	-0.161061	11	-0.0447392	0	0.0447392	0.000000000000000E+000	0.0447392	0.0000000E+000	0.000000000000000E+000	0.00385078
2	0	0	1	0	0	0	290.192	-0.899966	-0.900401	-4.27582	-0.164906	-0.164906	11	-0.0458073	0	0.0458073	0.000000000000000E+000	0.0458073	0.0000000E+000	0.000000000000000E+000	0.00384995
2	0	0	1	0	0	0	291.092	-0.899966	-0.90063	-4.27142	-0.168751	-0.168751	11	-0.0468753	0	0.0468753	0.000000000000000E+000	0.0468753	0.0000000E+000	0.000000000000000E+000	0.00384697
2	0	0	1	0	0	0	291.992	-0.899966	-0.900401	-4.27471	-0.172598	-0.172598	11	-0.0479438	0	0.0479438	0.000000000000000E+000	0.0479438	0.0000000E+000	0.000000000000000E+000	0.00384895
2	0	0	1	0	0	0	292.892	-0.899966	-0.90042	-4.27212	-0.176442	-0.176442	11	-0.0490118	0	0.0490118	0.000000000000000E+000	0.0490118	0.0000000E+000	0.000000000000000E+000	0.0038467
2	0	0	1	0	0	0	293.792	-0.899966	-0.900458	-4.27052	-0.180287	-0.180287	11	-0.0500797	0	0.0500797	0.000000000000000E+000	0.0500797	0.0000000E+000	0.000000000000000E+000	0.00384543
2	0	0	1	0	0	0	294.692	-0.899966	-0.900267	-4.27036	-0.184132	-0.184132	11	-0.0511477	0	0.0511477	0.000000000000000E+000	0.0511477	0.0000000E+000	0.000000000000000E+000	0.00384447
2	0	0	1	0	0	0	295.592	-0.899966	-0.90021	-4.26958	-0.187974	-0.187974	11	-0.0522151	0	0.0522151	0.000000000000000E+000	0.0522151	0.0000000E+000	0.000000000000000E+000	0.00384352
2	0	0	1	0	0	0	296.492	-0.899966	-0.900382	-4.27186	-0.19182	-0.19182	11	-0.0532833	0	0.0532833	0.000000000000000E+000	0.0532833	0.0000000E+000	0.000000000000000E+000	0.0038463
2	0	0	1	0	0	0	297.392	-0.899966	-0.900534	-4.03437	-0.195565	-0.195565	11	-0.0543236	0	0.0543236	0.000000000000000E+000	0.0543236	0.0000000E+000	0.000000000000000E+000	0.00363309
2	0	0	1	0	0	0	298.292	-0.899966	-0.900458	-3.96116	-0.199134	-0.199134	11	-0.0553151	0	0.0553151	0.000000000000000E+000	0.0553151	0.0000000E+000	0.000000000000000E+000	0.00356686
2	0	0	1	0	0	0	299.192	-0.899966	-0.900439	-3.95197	-0.202682	-0.202682	11	-0.0563005	0	0.0563005	0.000000000000000E+000	0.0563005	0.0000000E+000	0.000000000000000E+000	0.00355851
2	0	0	1	0	0	0	300.092	-0.899966	-0.900343	-3.95421	-0.206221	-0.206221	11	-0.0572837	0	0.0572837	0.000000000000000E+000	0.0572837	0.0000000E+000	0.000000000000000E+000	0.00356015
2	0	0	1	0	0	0	300.992	-0.899966	-0.900401	-3.95484	-0.209765	-0.209765	11	-0.0582681	0	0.0582681	0.000000000000000E+000	0.0582681	0.0000000E+000	0.000000000000000E+000	0.00356095
2	0	0	1	0	0	0	301.892	-0.899966	-0.90042	-3.95684	-0.213309	-0.213309	11	-0.0592526	0	0.0592526	0.000000000000000E+000	0.0592526	0.0000000E+000	0.000000000000000E+000	0.00356282
2	0	0	1	0	0	0	302.792	-0.899966	-0.900343	-3.95091	-0.216853	-0.216853	11	-0.0602369	0	0.0602369	0.000000000000000E+000	0.0602369	0.0000000E+000	0.000000000000000E+000	0.00355717
2	0	0	1	0	0	0	303.692	-0.899966	-0.900439	-3.9449	-0.220396	-0.220396	11	-0.0612212	0	0.0612212	0.000000000000000E+000	0.0612212	0.0000000E+000	0.000000000000000E+000	0.00355214
2	0	0	1	0	0	0	304.592	-0.899966	-0.900324	-3.93946	-0.223938	-0.223938	11	-0.0622049	0	0.0622049	0.000000000000000E+000	0.0622049	0.0000000E+000	0.000000000000000E+000	0.00354679
2	0	0	1	0	0	0	305.492	-0.899966	-0.900401	-3.92528	-0.227479	-0.227479	11	-0.0631886	0	0.0631886	0.000000000000000E+000	0.0631886	0.0000000E+000	0.000000000000000E+000	0.00353432
2	0	0	1	0	0	0	306.392	-0.899966	-0.900324	-3.92485	-0.231017	-0.231017	11	-0.0641712	0	0.0641712	0.000000000000000E+000	0.0641712	0.0000000E+000	0.000000000000000E+000	0.00353364
2	0	0	1	0	0	0	307.292	-0.899966	-0.900229	-3.91662	-0.234556	-0.234556	11	-0.0651545	0	0.0651545	0.000000000000000E+000	0.0651545	0.0000000E+000	0.000000000000000E+000	0.00352586
2	0	0	1	0	0	0	308.192	-0.899966	-0.900439	-3.92454	-0.238095	-0.238095	11	-0.0661376	0	0.0661376	0.000000000000000E+000	0.0661376	0.0000000E+000	0.000000000000000E+000	0.0035338
2	0	0	1	0	0	0	309.092	-0.899966	-0.900401	-3.91386	-0.241636	-0.241636	11	-0.067121	0	0.067121	0.000000000000000E+000	0.067121	0.0000000E+000	0.000000000000000E+000	0.00352405
2	0	0	1	0	0	0	309.992	-0.899966	-0.900305	-3.91611	-0.245176	-0.245176	11	-0.0681044	0	0.0681044	0.000000000000000E+000	0.0681044	0.0000000E+000	0.000000000000000E+000	0.00352569
2	0	0	1	0	0	0	310.892	-0.899966	-0.900286	-3.92145	-0.248717	-0.248717	11	-0.069088	0	0.069088	0.000000000000000E+000	0.069088	0.0000000E+000	0.000000000000000E+000	0.00353043
2	0	0	1	0	0	0	311.792	-0.899966	-0.900859	-3.92504	-0.252258	-0.252258	11	-0.0700716	0	0.0700716	0.000000000000000E+000	0.0700716	0.0000000E+000	0.000000000000000E+000	0.00353591
2	0	0	1	0	0	0	312.692	-0.899966	-0.900458	-3.92739	-0.255795	-0.255795	11	-0.0710543	0	0.0710543	0.000000000000000E+000	0.0710543	0.0000000E+000	0.000000000000000E+000	0.00353645
2	0	0	1	0	0	0	313.592	-0.899966	-0.900324	-3.7182	-0.259226	-0.259226	11	-0.0720072	0	0.0720072	0.000000000000000E+000	0.0720072	0.0000000E+000	0.000000000000000E+000	0.00334758
2	0	0	1	0	0	0	314.492	-0.899966	-0.90042	-3.65892	-0.262524	-0.262524	11	-0.0729232	0	0.0729232	0.000000000000000E+000	0.0729232	0.0000000E+000	0.000000000000000E+000	0.00329456
2	0	0	1	0	0	0	315.392	-0.899966	-0.900401	-3.62876	-0.265799	-0.265799	11	-0.0738331	0	0.0738331	0.000000000000000E+000	0.0738331	0.0000000E+000	0.000000000000000E+000	0.00326734
2	0	0	1	0	0	0	316.292	-0.899966	-0.900305	-3.62539	-0.269071	-0.269071	11	-0.074742	0	0.074742	0.000000000000000E+000	0.074742	0.0000000E+000	0.000000000000000E+000	0.00326396
2	0	0	1	0	0	0	317.192	-0.899966	-0.900305	-3.66477	-0.272347	-0.272347	11	-0.0756519	0	0.0756519	0.000000000000000E+000	0.0756519	0.0000000E+000	0.000000000000000E+000	0.00329941
2	0	0	1	0	0	0	318.092	-0.899966	-0.900305	-3.64107	-0.275623	-0.275623	11	-0.0765619	0	0.0765619	0.000000000000000E+000	0.0765619	0.0000000E+000	0.000000000000000E+000	0.00327808
2	0	0	1	0	0	0	318.992	-0.899966	-0.900286	-3.61892	-0.278895	-0.278895	11	-0.0774709	0	0.0774709	0.000000000000000E+000	0.0774709	0.0000000E+000	0.000000000000000E+000	0.00325806
2	0	0	1	0	0	0	319.892	-0.899966	-0.900248	-3.63769	-0.282169	-0.282169	11	-0.0783804	0	0.0783804	0.000000000000000E+000	0.0783804	0.0000000E+000	0.000000000000000E+000	0.00327482
2	0	0	1	0	0	0	320.792	-0.899966	-0.900382	-3.65148	-0.285442	-0.285442	11	-0.0792894	0	0.0792894	0.000000000000000E+000	0.0792894	0.0000000E+000	0.000000000000000E+000	0.00328772
2	0	0	1	0	0	0	321.692	-0.899966	-0.900382	-3.62451	-0.288713	-0.288713	11	-0.0801979	0	0.0801979	0.000000000000000E+000	0.0801979	0.0000000E+000	0.000000000000000E+000	0.00326344
2	0	0	1	0	0	0	322.592	-0.899966	-0.900382	-3.61703	-0.291981	-0.291981	11	-0.0811059	0	0.0811059	0.000000000000000E+000	0.0811059	0.0000000E+000	0.000000000000000E+000	0.00325671
2	0	0	1	0	0	0	323.492	-0.899966	-0.900401	-3.65628	-0.295254	-0.295254	11	-0.0820149	0	0.0820149	0.000000000000000E+000	0.0820149	0.0000000E+000	0.000000000000000E+000	0.00329212
2	0	0	1	0	0	0	324.392	-0.899966	-0.900573	-3.64227	-0.298525	-0.298525	11	-0.0829235	0	0.0829235	0.000000000000000E+000	0.0829235	0.0000000E+000	0.000000000000000E+000	0.00328013
2	0	0	1	0	0	0	325.292	-0.899966	-0.900592	-3.61119	-0.301792	-0.301792	11	-0.0838312	0	0.0838312	0.000000000000000E+000	0.0838312	0.0000000E+000	0.000000000000000E+000	0.00325221
2	0	0	1	0	0	0	326.192	-0.899966	-0.900305	-3.63151	-0.305063	-0.305063	11	-0.0847398	0	0.0847398	0.000000000000000E+000	0.0847398	0.0000000E+000	0.000000000000000E+000	0.00326946
2	0	0	1	0	0	0	327.092	-0.899966	-0.900496	-3.65476	-0.308335	-0.308335	11	-0.0856486	0	0.0856486	0.000000000000000E+000	0.0856486	0.0000000E+000	0.000000000000000E+000	0.00329109
2	0	0	1	0	0	0	327.992	-0.899966	-0.900573	-3.33177	-0.311483	-0.311483	11	-0.0865231	0	0.0865231	0.000000000000000E+000	0.0865231	0.0000000E+000	0.000000000000000E+000	0.0030005
2	0	0	1	0	0	0	328.892	-0.899966	-0.900362	-3.20099	-0.314391	-0.314391	11	-0.087331	0	0.087331	0.000000000000000E+000	0.087331	0.0000000E+000	0.000000000000000E+000	0.00288205
2	0	0	1	0	0	0	329.792	-0.899966	-0.900286	-3.17358	-0.317236	-0.317236	11	-0.0881212	0	0.0881212	0.000000000000000E+000	0.0881212	0.0000000E+000	0.000000000000000E+000	0.00285713
2	0	0	1	0	0	0	330.692	-0.899966	-0.900191	-3.21105	-0.320087	-0.320087	11	-0.088913	0	0.088913	0.000000000000000E+000	0.088913	0.0000000E+000	0.000000000000000E+000	0.00289056
2	0	0	1	0	0	0	331.592	-0.899966	-0.90042	-3.21602	-0.322968	-0.322968	11	-0.0897132	0	0.0897132	0.000000000000000E+000	0.0897132	0.0000000E+000	0.000000000000000E+000	0.00289577
2	0	0	1	0	0	0	332.492	-0.899966	-0.900382	-3.20895	-0.325854	-0.325854	11	-0.090515	0	0.090515	0.000000000000000E+000	0.090515	0.0000000E+000	0.000000000000000E+000	0.00288928
2	0	0	1	0	0	0	333.392	-0.899966	-0.900305	-3.21027	-0.328743	-0.328743	11	-0.0913174	0	0.0913174	0.000000000000000E+000	0.0913174	0.0000000E+000	0.000000000000000E+000	0.00289022
2	0	0	1	0	0	0	334.292	-0.899966	-0.900553	-3.20196	-0.331631	-0.331631	11	-0.0921198	0	0.0921198	0.000000000000000E+000	0.0921198	0.0000000E+000	0.000000000000000E+000	0.00288354
2	0	0	1	0	0	0	335.192	-0.899966	-0.900496	-3.20507	-0.334519	-0.334519	11	-0.0929219	0	0.0929219	0.000000000000000E+000	0.0929219	0.0000000E+000	0.000000000000000E+000	0.00288615
2	0	0	1	0	0	0	336.092	-0.899966	-0.900267	-3.19609	-0.337403	-0.337403	11	-0.0937232	0	0.0937232	0.000000000000000E+000	0.0937232	0.0000000E+000	0.000000000000000E+000	0.00287733
2	0	0	1	0	0	0	336.992	-0.899966	-0.90042	-3.19035	-0.340288	-0.340288	11	-0.0945245	0	0.0945245	0.000000000000000E+000	0.0945245	0.0000000E+000	0.000000000000000E+000	0.00287265
2	0	0	1	0	0	0	337.892	-0.899966	-0.900439	-3.19567	-0.343176	-0.343176	11	-0.0953266	0	0.0953266	0.000000000000000E+000	0.0953266	0.0000000E+000	0.000000000000000E+000	0.0028775
2	0	0	1	0	0	0	338.792	-0.899966	-0.900477	-3.19179	-0.346064	-0.346064	11	-0.0961289	0	0.0961289	0.000000000000000E+000	0.0961289	0.0000000E+000	0.000000000000000E+000	0.00287413
2	0	0	1	0	0	0	339.692	-0.899966	-0.900286	-3.19583	-0.348954	-0.348954	11	-0.0969316	0	0.0969316	0.000000000000000E+000	0.0969316	0.0000000E+000	0.000000000000000E+000	0.00287716
2	0	0	1	0	0	0	340.592	-0.899966	-0.900324	-3.21056	-0.351843	-0.351843	11	-0.0977341	0	0.0977341	0.000000000000000E+000	0.0977341	0.0000000E+000	0.000000000000000E+000	0.00289054
2	0	0	1	0	0	0	341.492	-0.899966	-0.900324	-3.22588	-0.354733	-0.354733	11	-0.098537	0	0.098537	0.000000000000000E+000	0.098537	0.0000000E+000	0.000000000000000E+000	0.00290434
2	0	0	1	0	0	0	342.392	-0.899966	-0.90042	-3.23411	-0.357623	-0.357623	11	-0.0993398	0	0.0993398	0.000000000000000E+000	0.0993398	0.0000000E+000	0.000000000000000E+000	0.00291206
2	0	0	1	0	0	0	343.292	-0.899966	-0.900439	-3.23252	-0.360511	-0.360511	11	-0.100142	0	0.100142	0.000000000000000E+000	0.100142	0.0000000E+000	0.000000000000000E+000	0.00291068
2	0	0	1	0	0	0	344.192	-0.899966	-0.900286	-3.22566	-0.363401	-0.363401	11	-0.100945	0	0.100945	0.000000000000000E+000	0.100945	0.0000000E+000	0.000000000000000E+000	0.00290402
2	0	0	1	0	0	0	345.092	-0.899966	-0.900439	-3.12923	-0.366259	-0.366259	11	-0.101739	0	0.101739	0.000000000000000E+000	0.101739	0.0000000E+000	0.000000000000000E+000	0.00281768
2	0	0	1	0	0	0	345.992	-0.899966	-0.900439	-2.93405	-0.368967	-0.368967	11	-0.102491	0	0.102491	0.000000000000000E+000	0.102491	0.0000000E+000	0.000000000000000E+000	0.00264194
2	0	0	1	0	0	0	346.892	-0.899966	-0.90042	-2.87621	-0.37157	-0.37157	11	-0.103214	0	0.103214	0.000000000000000E+000	0.103214	0.0000000E+000	0.000000000000000E+000	0.00258979
2	0	0	1	0	0	0	347.792	-0.899966	-0.900343	-2.85184	-0.374146	-0.374146	11	-0.10393	0	0.10393	0.000000000000000E+000	0.10393	0.0000000E+000	0.000000000000000E+000	0.00256763
2	0	0	1	0	0	0	348.692	-0.899966	-0.900477	-2.83574	-0.376708	-0.376708	11	-0.104641	0	0.104641	0.000000000000000E+000	0.104641	0.0000000E+000	0.000000000000000E+000	0.00255352
2	0	0	1	0	0	0	349.592	-0.899966	-0.900172	-2.8469	-0.379273	-0.379273	11	-0.105354	0	0.105354	0.000000000000000E+000	0.105354	0.0000000E+000	0.000000000000000E+000	0.0025627
2	0	0	1	0	0	0	350.492	-0.899966	-0.900343	-2.83193	-0.381832	-0.381832	11	-0.106064	0	0.106064	0.000000000000000E+000	0.106064	0.0000000E+000	0.000000000000000E+000	0.00254971
2	0	0	1	0	0	0	351.392	-0.899966	-0.90021	-2.85511	-0.384396	-0.384396	11	-0.106777	0	0.106777	0.000000000000000E+000	0.106777	0.0000000E+000	0.000000000000000E+000	0.00257019
2	0	0	1	0	0	0	352.292	-0.899966	-0.900515	-2.83066	-0.386953	-0.386953	11	-0.107487	0	0.107487	0.000000000000000E+000	0.107487	0.0000000E+000	0.000000000000000E+000	0.00254905
2	0	0	1	0	0	0	353.192	-0.899966	-0.900573	-2.85687	-0.389514	-0.389514	11	-0.108198	0	0.108198	0.000000000000000E+000	0.108198	0.0000000E+000	0.000000000000000E+000	0.00257282
2	0	0	1	0	0	0	354.092	-0.899966	-0.900362	-2.83727	-0.392071	-0.392071	11	-0.108909	0	0.108909	0.000000000000000E+000	0.108909	0.0000000E+000	0.000000000000000E+000	0.00255457
2	0	0	1	0	0	0	354.992	-0.899966	-0.90042	-2.85792	-0.394632	-0.394632	11	-0.10962	0	0.10962	0.000000000000000E+000	0.10962	0.0000000E+000	0.000000000000000E+000	0.00257332
2	0	0	1	0	0	0	355.892	-0.899966	-0.90042	-2.83263	-0.39719	-0.39719	11	-0.11033	0	0.11033	0.000000000000000E+000	0.11033	0.0000000E+000	0.000000000000000E+000	0.00255056
2	0	0	1	0	0	0	356.792	-0.899966	-0.900439	-2.8586	-0.399748	-0.399748	11	-0.111041	0	0.111041	0.000000000000000E+000	0.111041	0.0000000E+000	0.000000000000000E+000	0.002574
2	0	0	1	0	0	0	357.692	-0.899966	-0.900382	-2.8314	-0.402305	-0.402305	11	-0.111751	0	0.111751	0.000000000000000E+000	0.111751	0.0000000E+000	0.000000000000000E+000	0.00254934
2	0	0	1	0	0	0	358.592	-0.899966	-0.900286	-2.84924	-0.404861	-0.404861	11	-0.112461	0	0.112461	0.000000000000000E+000	0.112461	0.0000000E+000	0.000000000000000E+000	0.00256514
2	0	0	1	0	0	0	359.492	-0.899966	-0.90042	-2.84511	-0.407422	-0.407422	11	-0.113173	0	0.113173	0.000000000000000E+000	0.113173	0.0000000E+000	0.000000000000000E+000	0.0025618
2	0	0	1	0	0	0	360.392	-0.899966	-0.900458	-2.84173	-0.40998	-0.40998	11	-0.113883	0	0.113883	0.000000000000000E+000	0.113883	0.0000000E+000	0.000000000000000E+000	0.00255886
2	0	0	1	0	0	0	361.292	-0.899966	-0.900362	-2.84997	-0.412545	-0.412545	11	-0.114596	0	0.114596	0.000000000000000E+000	0.114596	0.0000000E+000	0.000000000000000E+000	0.00256601
2	0	0	1	0	0	0	362.192	-0.899966	-0.90042	-2.83156	-0.415104	-0.415104	11	-0.115307	0	0.115307	0.000000000000000E+000	0.115307	0.0000000E+000	0.000000000000000E+000	0.00254959
2	0	0	1	0	0	0	363.092	-0.899966	-0.900172	-2.84999	-0.41767	-0.41767	11	-0.11602	0	0.11602	0.000000000000000E+000	0.11602	0.0000000E+000	0.000000000000000E+000	0.00256548
2	0	0	1	0	0	0	363.992	-0.899966	-0.900343	-2.83097	-0.42023	-0.42023	11	-0.116731	0	0.116731	0.000000000000000E+000	0.116731	0.0000000E+000	0.000000000000000E+000	0.00254884
2	0	0	1	0	0	0	364.892	-0.899966	-0.900324	-2.85064	-0.422794	-0.422794	11	-0.117443	0	0.117443	0.000000000000000E+000	0.117443	0.0000000E+000	0.000000000000000E+000	0.0025665
2	0	0	1	0	0	0	365.792	-0.899966	-0.900229	-2.84025	-0.425354	-0.425354	11	-0.118154	0	0.118154	0.000000000000000E+000	0.118154	0.0000000E+000	0.000000000000000E+000	0.00255688
2	0	0	1	0	0	0	366.692	-0.899966	-0.900477	-2.85782	-0.427915	-0.427915	11	-0.118865	0	0.118865	0.000000000000000E+000	0.118865	0.0000000E+000	0.000000000000000E+000	0.0025734
2	0	0	1	0	0	0	367.592	-0.899966	-0.900324	-2.84063	-0.430473	-0.430473	11	-0.119576	0	0.119576	0.000000000000000E+000	0.119576	0.0000000E+000	0.000000000000000E+000	0.00255749
2	0	0	1	0	0	0	368.492	-0.899966	-0.900382	-2.92444	-0.433056	-0.433056	11	-0.120293	0	0.120293	0.000000000000000E+000	0.120293	0.0000000E+000	0.000000000000000E+000	0.00263312
2	0	0	1	0	0	0	369.392	-0.899966	-0.90042	-3.10723	-0.435778	-0.435778	11	-0.121049	0	0.121049	0.000000000000000E+000	0.121049	0.0000000E+000	0.000000000000000E+000	0.00279781
2	0	0	1	0	0	0	370.292	-0.899966	-0.900401	-3.18481	-0.438621	-0.438621	11	-0.121839	0	0.121839	0.000000000000000E+000	0.121839	0.0000000E+000	0.000000000000000E+000	0.0028676
2	0	0	1	0	0	0	371.192	-0.899966	-0.900248	-3.19457	-0.441493	-0.441493	11	-0.122637	0	0.122637	0.000000000000000E+000	0.122637	0.0000000E+000	0.000000000000000E+000	0.0028759
2	0	0	1	0	0	0	372.092	-0.899966	-0.900477	-3.19786	-0.444372	-0.444372	11	-0.123437	0	0.123437	0.000000000000000E+000	0.123437	0.0000000E+000	0.000000000000000E+000	0.0028796
2	0	0	1	0	0	0	372.992	-0.899966	-0.900439	-3.19237	-0.447253	-0.447253	11	-0.124237	0	0.124237	0.000000000000000E+000	0.124237	0.0000000E+000	0.000000000000000E+000	0.00287453
2	0	0	1	0	0	0	373.892	-0.899966	-0.900496	-3.18954	-0.450134	-0.450134	11	-0.125037	0	0.125037	0.000000000000000E+000	0.125037	0.0000000E+000	0.000000000000000E+000	0.00287216
2	0	0	1	0	0	0	374.792	-0.899966	-0.900382	-3.18237	-0.453013	-0.453013	11	-0.125837	0	0.125837	0.000000000000000E+000	0.125837	0.0000000E+000	0.000000000000000E+000	0.00286535
2	0	0	1	0	0	0	375.692	-0.899966	-0.90042	-3.17782	-0.455893	-0.455893	11	-0.126637	0	0.126637	0.000000000000000E+000	0.126637	0.0000000E+000	0.000000000000000E+000	0.00286137
2	0	0	1	0	0	0	376.592	-0.899966	-0.900324	-3.18554	-0.458774	-0.458774	11	-0.127437	0	0.127437	0.000000000000000E+000	0.127437	0.0000000E+000	0.000000000000000E+000	0.00286802
2	0	0	1	0	0	0	377.492	-0.899966	-0.900324	-3.19954	-0.461658	-0.461658	11	-0.128238	0	0.128238	0.000000000000000E+000	0.128238	0.0000000E+000	0.000000000000000E+000	0.00288062
2	0	0	1	0	0	0	378.392	-0.899966	-0.90042	-3.21066	-0.464537	-0.464537	11	-0.129038	0	0.129038	0.000000000000000E+000	0.129038	0.0000000E+000	0.000000000000000E+000	0.00289094
2	0	0	1	0	0	0	379.292	-0.899966	-0.900362	-3.2216	-0.467417	-0.467417	11	-0.129838	0	0.129838	0.000000000000000E+000	0.129838	0.0000000E+000	0.000000000000000E+000	0.00290061
2	0	0	1	0	0	0	380.192	-0.899966	-0.900611	-3.21934	-0.470296	-0.470296	11	-0.130638	0	0.130638	0.000000000000000E+000	0.130638	0.0000000E+000	0.000000000000000E+000	0.00289937
2	0	0	1	0	0	0	381.092	-0.899966	-0.90021	-3.21046	-0.473174	-0.473174	11	-0.131437	0	0.131437	0.000000000000000E+000	0.131437	0.0000000E+000	0.000000000000000E+000	0.00289009
2	0	0	1	0	0	0	381.992	-0.899966	-0.900324	-3.2078	-0.476052	-0.476052	11	-0.132237	0	0.132237	0.000000000000000E+000	0.132237	0.0000000E+000	0.000000000000000E+000	0.00288806
2	0	0	1	0	0	0	382.892	-0.899966	-0.900343	-3.20331	-0.47893	-0.47893	11	-0.133036	0	0.133036	0.000000000000000E+000	0.133036	0.0000000E+000	0.000000000000000E+000	0.00288408
2	0	0	1	0	0	0	383.792	-0.899966	-0.900324	-3.20336	-0.481808	-0.481808	11	-0.133836	0	0.133836	0.000000000000000E+000	0.133836	0.0000000E+000	0.000000000000000E+000	0.00288406
2	0	0	1	0	0	0	384.692	-0.899966	-0.900362	-3.19884	-0.484689	-0.484689	11	-0.134636	0	0.134636	0.000000000000000E+000	0.134636	0.0000000E+000	0.000000000000000E+000	0.00288011
2	0	0	1	0	0	0	385.592	-0.899966	-0.900362	-3.19066	-0.487571	-0.487571	11	-0.135436	0	0.135436	0.000000000000000E+000	0.135436	0.0000000E+000	0.000000000000000E+000	0.00287275
2	0	0	1	0	0	0	386.492	-0.899966	-0.90042	-3.19294	-0.490456	-0.490456	11	-0.136238	0	0.136238	0.000000000000000E+000	0.136238	0.0000000E+000	0.000000000000000E+000	0.00287499
2	0	0	1	0	0	0	387.392	-0.899966	-0.900229	-3.19291	-0.493341	-0.493341	11	-0.137039	0	0.137039	0.000000000000000E+000	0.137039	0.0000000E+000	0.000000000000000E+000	0.00287435
2	0	0	1	0	0	0	388.292	-0.899966	-0.900267	-3.19088	-0.496224	-0.496224	11	-0.13784	0	0.13784	0.000000000000000E+000	0.13784	0.0000000E+000	0.000000000000000E+000	0.00287264
2	0	0	1	0	0	0	389.192	-0.899966	-0.900382	-3.18064	-0.499106	-0.499106	11	-0.138641	0	0.138641	0.000000000000000E+000	0.138641	0.0000000E+000	0.000000000000000E+000	0.00286379
2	0	0	1	0	0	0	390.092	-0.899966	-0.900496	-3.18984	-0.501988	-0.501988	11	-0.139441	0	0.139441	0.000000000000000E+000	0.139441	0.0000000E+000	0.000000000000000E+000	0.00287244
2	0	0	1	0	0	0	390.992	-0.899966	-0.900458	-3.20837	-0.50487	-0.50487	11	-0.140242	0	0.140242	0.000000000000000E+000	0.140242	0.0000000E+000	0.000000000000000E+000	0.002889
2	0	0	1	0	0	0	391.892	-0.899966	-0.900458	-3.21999	-0.507751	-0.507751	11	-0.141042	0	0.141042	0.000000000000000E+000	0.141042	0.0000000E+000	0.000000000000000E+000	0.00289947
2	0	0	1	0	0	0	392.792	-0.899966	-0.900362	-3.22353	-0.510633	-0.510633	11	-0.141843	0	0.141843	0.000000000000000E+000	0.141843	0.0000000E+000	0.000000000000000E+000	0.00290235
2	0	0	1	0	0	0	393.692	-0.899966	-0.900324	-3.22185	-0.513515	-0.513515	11	-0.142643	0	0.142643	0.000000000000000E+000	0.142643	0.0000000E+000	0.000000000000000E+000	0.00290071
2	0	0	1	0	0	0	394.592	-0.899966	-0.90042	-3.219	-0.516395	-0.516395	11	-0.143443	0	0.143443	0.000000000000000E+000	0.143443	0.0000000E+000	0.000000000000000E+000	0.00289845
2	0	0	1	0	0	0	395.492	-0.899966	-0.900477	-3.1997	-0.519275	-0.519275	11	-0.144243	0	0.144243	0.000000000000000E+000	0.144243	0.0000000E+000	0.000000000000000E+000	0.00288125
2	0	0	1	0	0	0	396.392	-0.899966	-0.900382	-3.20282	-0.522154	-0.522154	11	-0.145043	0	0.145043	0.000000000000000E+000	0.145043	0.0000000E+000	0.000000000000000E+000	0.00288376
2	0	0	1	0	0	0	397.292	-0.899966	-0.900439	-3.19829	-0.525031	-0.525031	11	-0.145842	0	0.145842	0.000000000000000E+000	0.145842	0.0000000E+000	0.000000000000000E+000	0.00287986
2	0	0	1	0	0	0	398.192	-0.899966	-0.900362	-3.18701	-0.527907	-0.527907	11	-0.146641	0	0.146641	0.000000000000000E+000	0.146641	0.0000000E+000	0.000000000000000E+000	0.00286947
2	0	0	1	0	0	0	399.092	-0.899966	-0.900362	-3.18394	-0.530785	-0.530785	11	-0.14744	0	0.14744	0.000000000000000E+000	0.14744	0.0000000E+000	0.000000000000000E+000	0.0028667
2	0	0	1	0	0	0	399.992	-0.899966	-0.90042	-3.18104	-0.533662	-0.533662	11	-0.148239	0	0.148239	0.000000000000000E+000	0.148239	0.0000000E+000	0.000000000000000E+000	0.00286427
2	0	0	1	0	0	0	400.892	-0.899966	-0.900248	-3.17809	-0.536537	-0.536537	11	-0.149038	0	0.149038	0.000000000000000E+000	0.149038	0.0000000E+000	0.000000000000000E+000	0.00286107
2	0	0	1	0	0	0	401.792	-0.899966	-0.900267	-3.1699	-0.539412	-0.539412	11	-0.149837	0	0.149837	0.000000000000000E+000	0.149837	0.0000000E+000	0.000000000000000E+000	0.00285376
2	0	0	1	0	0	0	402.692	-0.899966	-0.900458	-3.17882	-0.54229	-0.54229	11	-0.150636	0	0.150636	0.000000000000000E+000	0.150636	0.0000000E+000	0.000000000000000E+000	0.00286239
2	0	0	1	0	0	0	403.592	-0.899966	-0.900343	-3.1948	-0.545166	-0.545166	11	-0.151435	0	0.151435	0.000000000000000E+000	0.151435	0.0000000E+000	0.000000000000000E+000	0.00287642
2	0	0	1	0	0	0	404.492	-0.899966	-0.900458	-3.20797	-0.548045	-0.548045	11	-0.152235	0	0.152235	0.000000000000000E+000	0.152235	0.0000000E+000	0.000000000000000E+000	0.00288864
2	0	0	1	0	0	0	405.392	-0.899966	-0.900439	-3.22024	-0.550923	-0.550923	11	-0.153034	0	0.153034	0.000000000000000E+000	0.153034	0.0000000E+000	0.000000000000000E+000	0.00289963
2	0	0	1	0	0	0	406.292	-0.899966	-0.900496	-3.28422	-0.553812	-0.553812	11	-0.153837	0	0.153837	0.000000000000000E+000	0.153837	0.0000000E+000	0.000000000000000E+000	0.00295743
2	0	0	1	0	0	0	407.192	-0.899966	-0.900305	-3.58447	-0.556976	-0.556976	11	-0.154716	0	0.154716	0.000000000000000E+000	0.154716	0.0000000E+000	0.000000000000000E+000	0.00322711
2	0	0	1	0	0	0	408.092	-0.899966	-0.900553	-3.64024	-0.560223	-0.560223	11	-0.155618	0	0.155618	0.000000000000000E+000	0.155618	0.0000000E+000	0.000000000000000E+000	0.00327823
2	0	0	1	0	0	0	408.992	-0.899966	-0.900191	-3.60865	-0.563474	-0.563474	11	-0.156521	0	0.156521	0.000000000000000E+000	0.156521	0.0000000E+000	0.000000000000000E+000	0.00324848
2	0	0	1	0	0	0	409.892	-0.899966	-0.900286	-3.58881	-0.566724	-0.566724	11	-0.157423	0	0.157423	0.000000000000000E+000	0.157423	0.0000000E+000	0.000000000000000E+000	0.00323096
2	0	0	1	0	0	0	410.792	-0.899966	-0.90042	-3.62392	-0.569979	-0.569979	11	-0.158327	0	0.158327	0.000000000000000E+000	0.158327	0.0000000E+000	0.000000000000000E+000	0.00326305
2	0	0	1	0	0	0	411.692	-0.899966	-0.900343	-3.62879	-0.573233	-0.573233	11	-0.159231	0	0.159231	0.000000000000000E+000	0.159231	0.0000000E+000	0.000000000000000E+000	0.00326716
2	0	0	1	0	0	0	412.592	-0.899966	-0.900439	-3.60121	-0.576484	-0.576484	11	-0.160134	0	0.160134	0.000000000000000E+000	0.160134	0.0000000E+000	0.000000000000000E+000	0.00324267
2	0	0	1	0	0	0	413.492	-0.899966	-0.900515	-3.60179	-0.579735	-0.579735	11	-0.161037	0	0.161037	0.000000000000000E+000	0.161037	0.0000000E+000	0.000000000000000E+000	0.00324347
2	0	0	1	0	0	0	414.392	-0.899966	-0.900401	-3.63934	-0.582989	-0.582989	11	-0.161941	0	0.161941	0.000000000000000E+000	0.161941	0.0000000E+000	0.000000000000000E+000	0.00327686
2	0	0	1	0	0	0	415.292	-0.899966	-0.900573	-3.60991	-0.586236	-0.586236	11	-0.162843	0	0.162843	0.000000000000000E+000	0.162843	0.0000000E+000	0.000000000000000E+000	0.00325099
2	0	0	1	0	0	0	416.192	-0.899966	-0.900458	-3.58613	-0.589482	-0.589482	11	-0.163745	0	0.163745	0.000000000000000E+000	0.163745	0.0000000E+000	0.000000000000000E+000	0.00322916
2	0	0	1	0	0	0	417.092	-0.899966	-0.900477	-3.61455	-0.592734	-0.592734	11	-0.164648	0	0.164648	0.000000000000000E+000	0.164648	0.0000000E+000	0.000000000000000E+000	0.00325482
2	0	0	1	0	0	0	417.992	-0.899966	-0.900324	-3.62627	-0.595981	-0.595981	11	-0.16555	0	0.16555	0.000000000000000E+000	0.16555	0.0000000E+000	0.000000000000000E+000	0.00326482
2	0	0	1	0	0	0	418.892	-0.899966	-0.900706	-3.59354	-0.599222	-0.599222	11	-0.16645	0	0.16645	0.000000000000000E+000	0.16645	0.0000000E+000	0.000000000000000E+000	0.00323673
2	0	0	1	0	0	0	419.792	-0.899966	-0.900305	-3.58828	-0.602467	-0.602467	11	-0.167352	0	0.167352	0.000000000000000E+000	0.167352	0.0000000E+000	0.000000000000000E+000	0.00323055
2	0	0	1	0	0	0	420.692	-0.899966	-0.900305	-3.71533	-0.60574	-0.60574	11	-0.168261	0	0.168261	0.000000000000000E+000	0.168261	0.0000000E+000	0.000000000000000E+000	0.00334493
2	0	0	1	0	0	0	421.592	-0.899966	-0.900401	-3.86666	-0.609201	-0.609201	11	-0.169223	0	0.169223	0.000000000000000E+000	0.169223	0.0000000E+000	0.000000000000000E+000	0.00348154
2	0	0	1	0	0	0	422.492	-0.899966	-0.900496	-3.88944	-0.612706	-0.612706	11	-0.170196	0	0.170196	0.000000000000000E+000	0.170196	0.0000000E+000	0.000000000000000E+000	0.00350242
2	0	0	1	0	0	0	423.392	-0.899966	-0.900343	-3.89076	-0.616212	-0.616212	11	-0.17117	0	0.17117	0.000000000000000E+000	0.17117	0.0000000E+000	0.000000000000000E+000	0.00350302
2	0	0	1	0	0	0	424.292	-0.899966	-0.900401	-3.89838	-0.619716	-0.619716	11	-0.172143	0	0.172143	0.000000000000000E+000	0.172143	0.0000000E+000	0.000000000000000E+000	0.00351011
2	0	0	1	0	0	0	425.192	-0.899966	-0.900534	-3.89387	-0.623214	-0.623214	11	-0.173115	0	0.173115	0.000000000000000E+000	0.173115	0.0000000E+000	0.000000000000000E+000	0.00350657
2	0	0	1	0	0	0	426.092	-0.899966	-0.900324	-3.90379	-0.626713	-0.626713	11	-0.174087	0	0.174087	0.000000000000000E+000	0.174087	0.0000000E+000	0.000000000000000E+000	0.00351468
2	0	0	1	0	0	0	426.992	-0.899966	-0.900496	-3.91792	-0.630213	-0.630213	11	-0.175059	0	0.175059	0.000000000000000E+000	0.175059	0.0000000E+000	0.000000000000000E+000	0.00352807
2	0	0	1	0	0	0	427.892	-0.899966	-0.900305	-3.91237	-0.633715	-0.633715	11	-0.176032	0	0.176032	0.000000000000000E+000	0.176032	0.0000000E+000	0.000000000000000E+000	0.00352233
2	0	0	1	0	0	0	428.792	-0.899966	-0.900477	-3.91234	-0.637218	-0.637218	11	-0.177005	0	0.177005	0.000000000000000E+000	0.177005	0.0000000E+000	0.000000000000000E+000	0.00352297
2	0	0	1	0	0	0	429.692	-0.899966	-0.900248	-3.90881	-0.640717	-0.640717	11	-0.177977	0	0.177977	0.000000000000000E+000	0.177977	0.0000000E+000	0.000000000000000E+000	0.0035189
2	0	0	1	0	0	0	430.592	-0.899966	-0.900401	-3.89704	-0.644217	-0.644217	11	-0.178949	0	0.178949	0.000000000000000E+000	0.178949	0.0000000E+000	0.000000000000000E+000	0.0035089
2	0	0	1	0	0	0	431.492	-0.899966	-0.900611	-3.89118	-0.647716	-0.647716	11	-0.179921	0	0.179921	0.000000000000000E+000	0.179921	0.0000000E+000	0.000000000000000E+000	0.00350444
2	0	0	1	0	0	0	432.392	-0.899966	-0.900515	-3.87694	-0.651212	-0.651212	11	-0.180892	0	0.180892	0.000000000000000E+000	0.180892	0.0000000E+000	0.000000000000000E+000	0.00349125
2	0	0	1	0	0	0	433.292	-0.899966	-0.90021	-3.87142	-0.654702	-0.654702	11	-0.181862	0	0.181862	0.000000000000000E+000	0.181862	0.0000000E+000	0.000000000000000E+000	0.00348509
2	0	0	1	0	0	0	434.192	-0.899966	-0.900592	-3.86643	-0.65819	-0.65819	11	-0.182831	0	0.182831	0.000000000000000E+000	0.182831	0.0000000E+000	0.000000000000000E+000	0.00348207
2	0	0	1	0	0	0	435.092	-0.899966	-0.900401	-3.87147	-0.661685	-0.661685	11	-0.183802	0	0.183802	0.000000000000000E+000	0.183802	0.0000000E+000	0.000000000000000E+000	0.00348587
2	0	0	1	0	0	0	435.992	-0.899966	-0.900248	-3.86191	-0.66518	-0.66518	11	-0.184772	0	0.184772	0.000000000000000E+000	0.184772	0.0000000E+000	0.000000000000000E+000	0.00347667
2	0	0	1	0	0	0	436.892	-0.899966	-0.900553	-3.85552	-0.66867	-0.66867	11	-0.185742	0	0.185742	0.000000000000000E+000	0.185742	0.0000000E+000	0.000000000000000E+000	0.00347211
2	0	0	1	0	0	0	437.792	-0.899966	-0.900592	-3.8593	-0.672166	-0.672166	11	-0.186713	0	0.186713	0.000000000000000E+000	0.186713	0.0000000E+000	0.000000000000000E+000	0.00347565
2	0	0	1	0	0	0	438.692	-0.899966	-0.900172	-3.86815	-0.675665	-0.675665	11	-0.187685	0	0.187685	0.000000000000000E+000	0.187685	0.0000000E+000	0.000000000000000E+000	0.003482
2	0	0	1	0	0	0	439.592	-0.899966	-0.900133	-3.87541	-0.679164	-0.679164	11	-0.188657	0	0.188657	0.000000000000000E+000	0.188657	0.0000000E+000	0.000000000000000E+000	0.00348838
2	0	0	1	0	0	0	440.492	-0.899966	-0.900248	-3.88195	-0.682661	-0.682661	11	-0.189628	0	0.189628	0.000000000000000E+000	0.189628	0.0000000E+000	0.000000000000000E+000	0.00349472
2	0	0	1	0	0	0	441.392	-0.899966	-0.900248	-3.86973	-0.686145	-0.686145	11	-0.190596	0	0.190596	0.000000000000000E+000	0.190596	0.0000000E+000	0.000000000000000E+000	0.00348372
2	0	0	1	0	0	0	442.292	-0.899966	-0.90042	-3.88235	-0.689624	-0.689624	11	-0.191562	0	0.191562	0.000000000000000E+000	0.191562	0.0000000E+000	0.000000000000000E+000	0.00349574
2	0	0	1	0	0	0	443.192	-0.899966	-0.900477	-3.89987	-0.693116	-0.693116	11	-0.192532	0	0.192532	0.000000000000000E+000	0.192532	0.0000000E+000	0.000000000000000E+000	0.00351174
2	0	0	1	0	0	0	444.092	-0.899966	-0.900343	-3.90687	-0.696609	-0.696609	11	-0.193502	0	0.193502	0.000000000000000E+000	0.193502	0.0000000E+000	0.000000000000000E+000	0.00351753
2	0	0	1	0	0	0	444.992	-0.899966	-0.900477	-3.90679	-0.700104	-0.700104	11	-0.194473	0	0.194473	0.000000000000000E+000	0.194473	0.0000000E+000	0.000000000000000E+000	0.00351797
2	0	0	1	0	0	0	445.892	-0.899966	-0.900153	-3.903	-0.703598	-0.703598	11	-0.195444	0	0.195444	0.000000000000000E+000	0.195444	0.0000000E+000	0.000000000000000E+000	0.0035133
2	0	0	1	0	0	0	446.792	-0.899966	-0.900477	-3.90341	-0.707093	-0.707093	11	-0.196415	0	0.196415	0.000000000000000E+000	0.196415	0.0000000E+000	0.000000000000000E+000	0.00351494
2	0	0	1	0	0	0	447.692	-0.899966	-0.900382	-4.1299	-0.710657	-0.710657	11	-0.197405	0	0.197405	0.000000000000000E+000	0.197405	0.0000000E+000	0.000000000000000E+000	0.00371849
2	0	0	1	0	0	0	448.592	-0.899966	-0.900439	-4.19835	-0.714429	-0.714429	11	-0.198452	0	0.198452	0.000000000000000E+000	0.198452	0.0000000E+000	0.000000000000000E+000	0.00378036
2	0	0	1	0	0	0	449.492	-0.899966	-0.900458	-4.20239	-0.718208	-0.718208	11	-0.199502	0	0.199502	0.000000000000000E+000	0.199502	0.0000000E+000	0.000000000000000E+000	0.00378408
2	0	0	1	0	0	0	450.392	-0.899966	-0.900515	-4.20881	-0.72199	-0.72199	11	-0.200553	0	0.200553	0.000000000000000E+000	0.200553	0.0000000E+000	0.000000000000000E+000	0.0037901
2	0	0	1	0	0	0	451.292	-0.899966	-0.900305	-4.20226	-0.725774	-0.725774	11	-0.201604	0	0.201604	0.000000000000000E+000	0.201604	0.0000000E+000	0.000000000000000E+000	0.00378331
2	0	0	1	0	0	0	452.192	-0.899966	-0.900458	-4.20341	-0.729553	-0.729553	11	-0.202654	0	0.202654	0.000000000000000E+000	0.202654	0.0000000E+000	0.000000000000000E+000	0.003785
2	0	0	1	0	0	0	453.092	-0.899966	-0.900439	-4.20332	-0.733335	-0.733335	11	-0.203704	0	0.203704	0.000000000000000E+000	0.203704	0.0000000E+000	0.000000000000000E+000	0.00378483
2	0	0	1	0	0	0	453.992	-0.899966	-0.900439	-4.1973	-0.737113	-0.737113	11	-0.204754	0	0.204754	0.000000000000000E+000	0.204754	0.0000000E+000	0.000000000000000E+000	0.00377941
2	0	0	1	0	0	0	454.892	-0.899966	-0.900305	-4.20387	-0.740896	-0.740896	11	-0.205804	0	0.205804	0.000000000000000E+000	0.205804	0.0000000E+000	0.000000000000000E+000	0.00378476
2	0	0	1	0	0	0	455.792	-0.899966	-0.900343	-4.20011	-0.744677	-0.744677	11	-0.206855	0	0.206855	0.000000000000000E+000	0.206855	0.0000000E+000	0.000000000000000E+000	0.00378154
2	0	0	1	0	0	0	456.692	-0.899966	-0.900439	-4.2008	-0.748455	-0.748455	11	-0.207904	0	0.207904	0.000000000000000E+000	0.207904	0.0000000E+000	0.000000000000000E+000	0.00378256
2	0	0	1	0	0	0	457.592	-0.899966	-0.900382	-4.1985	-0.752234	-0.752234	11	-0.208954	0	0.208954	0.000000000000000E+000	0.208954	0.0000000E+000	0.000000000000000E+000	0.00378026
2	0	0	1	0	0	0	458.492	-0.899966	-0.900592	-4.19434	-0.756011	-0.756011	11	-0.210003	0	0.210003	0.000000000000000E+000	0.210003	0.0000000E+000	0.000000000000000E+000	0.00377738
2	0	0	1	0	0	0	459.392	-0.899966	-0.90042	-4.20292	-0.75979	-0.75979	11	-0.211053	0	0.211053	0.000000000000000E+000	0.211053	0.0000000E+000	0.000000000000000E+000	0.0037844
2	0	0	1	0	0	0	460.292	-0.899966	-0.900573	-4.19769	-0.763567	-0.763567	11	-0.212102	0	0.212102	0.000000000000000E+000	0.212102	0.0000000E+000	0.000000000000000E+000	0.00378032
2	0	0	1	0	0	0	461.192	-0.899966	-0.900477	-4.2004	-0.767344	-0.767344	11	-0.213151	0	0.213151	0.000000000000000E+000	0.213151	0.0000000E+000	0.000000000000000E+000	0.00378236
2	0	0	1	0	0	0	462.092	-0.899966	-0.900382	-4.19812	-0.771123	-0.771123	11	-0.214201	0	0.214201	0.000000000000000E+000	0.214201	0.0000000E+000	0.000000000000000E+000	0.00377991
2	0	0	1	0	0	0	462.992	-0.899966	-0.900248	-4.1965	-0.774899	-0.774899	11	-0.21525	0	0.21525	0.000000000000000E+000	0.21525	0.0000000E+000	0.000000000000000E+000	0.0037779
2	0	0	1	0	0	0	463.892	-0.899966	-0.900362	-4.20127	-0.778678	-0.778678	11	-0.2163	0	0.2163	0.000000000000000E+000	0.2163	0.0000000E+000	0.000000000000000E+000	0.00378267
2	0	0	1	0	0	0	464.792	-0.899966	-0.900515	-4.19265	-0.782452	-0.782452	11	-0.217348	0	0.217348	0.000000000000000E+000	0.217348	0.0000000E+000	0.000000000000000E+000	0.00377554
2	0	0	1	0	0	0	465.692	-0.899966	-0.900305	-4.18998	-0.786223	-0.786223	11	-0.218395	0	0.218395	0.000000000000000E+000	0.218395	0.0000000E+000	0.000000000000000E+000	0.00377226
2	0	0	1	0	0	0	466.592	-0.899966	-0.900382	-4.19302	-0.789996	-0.789996	11	-0.219443	0	0.219443	0.000000000000000E+000	0.219443	0.0000000E+000	0.000000000000000E+000	0.00377531
2	0	0	1	0	0	0	467.492	-0.899966	-0.90042	-4.18837	-0.793767	-0.793767	11	-0.220491	0	0.220491	0.000000000000000E+000	0.220491	0.0000000E+000	0.000000000000000E+000	0.00377129
2	0	0	1	0	0	0	468.392	-0.899966	-0.90042	-4.19414	-0.797538	-0.797538	11	-0.221538	0	0.221538	0.000000000000000E+000	0.221538	0.0000000E+000	0.000000000000000E+000	0.00377648
2	0	0	1	0	0	0	469.292	-0.899966	-0.900515	-4.19054	-0.80131	-0.80131	11	-0.222586	0	0.222586	0.000000000000000E+000	0.222586	0.0000000E+000	0.000000000000000E+000	0.00377364
2	0	0	1	0	0	0	470.192	-0.899966	-0.900458	-4.186	-0.805078	-0.805078	11	-0.223633	0	0.223633	0.000000000000000E+000	0.223633	0.0000000E+000	0.000000000000000E+000	0.00376932
2	0	0	1	0	0	0	471.092	-0.899966	-0.90021	-4.18688	-0.808845	-0.808845	11	-0.224679	0	0.224679	0.000000000000000E+000	0.224679	0.0000000E+000	0.000000000000000E+000	0.00376907
2	0	0	1	0	0	0	471.992	-0.899966	-0.900439	-4.1835	-0.81261	-0.81261	11	-0.225725	0	0.225725	0.000000000000000E+000	0.225725	0.0000000E+000	0.000000000000000E+000	0.00376699
2	0	0	1	0	0	0	472.892	-0.899966	-0.900382	-4.1882	-0.816375	-0.816375	11	-0.226771	0	0.226771	0.000000000000000E+000	0.226771	0.0000000E+000	0.000000000000000E+000	0.00377098
2	0	0	1	0	0	0	473.792	-0.899966	-0.900611	-3.97879	-0.82006	-0.82006	11	-0.227794	0	0.227794	0.000000000000000E+000	0.227794	0.0000000E+000	0.000000000000000E+000	0.00358334
2	0	0	1	0	0	0	474.692	-0.899966	-0.900477	-3.89289	-0.823569	-0.823569	11	-0.228769	0	0.228769	0.000000000000000E+000	0.228769	0.0000000E+000	0.000000000000000E+000	0.00350546
2	0	0	1	0	0	0	475.592	-0.899966	-0.900382	-3.88491	-0.827055	-0.827055	11	-0.229737	0	0.229737	0.000000000000000E+000	0.229737	0.0000000E+000	0.000000000000000E+000	0.0034979
2	0	0	1	0	0	0	476.492	-0.899966	-0.900496	-3.88118	-0.830533	-0.830533	11	-0.230704	0	0.230704	0.000000000000000E+000	0.230704	0.0000000E+000	0.000000000000000E+000	0.00349499
2	0	0	1	0	0	0	477.392	-0.899966	-0.900515	-3.88189	-0.834007	-0.834007	11	-0.231669	0	0.231669	0.000000000000000E+000	0.231669	0.0000000E+000	0.000000000000000E+000	0.0034957
2	0	0	1	0	0	0	478.292	-0.899966	-0.900382	-3.88285	-0.837485	-0.837485	11	-0.232635	0	0.232635	0.000000000000000E+000	0.232635	0.0000000E+000	0.000000000000000E+000	0.00349605
2	0	0	1	0	0	0	479.192	-0.899966	-0.900343	-3.87759	-0.84096	-0.84096	11	-0.2336	0	0.2336	0.000000000000000E+000	0.2336	0.0000000E+000	0.000000000000000E+000	0.00349116
2	0	0	1	0	0	0	480.092	-0.899966	-0.900286	-4.08855	-0.844498	-0.844498	11	-0.234583	0	0.234583	0.000000000000000E+000	0.234583	0.0000000E+000	0.000000000000000E+000	0.00368086
2	0	0	1	0	0	0	480.992	-0.899966	-0.900477	-4.28145	-0.848311	-0.848311	11	-0.235642	0	0.235642	0.000000000000000E+000	0.235642	0.0000000E+000	0.000000000000000E+000	0.00385535
2	0	0	1	0	0	0	481.892	-0.899966	-0.900439	-4.31297	-0.852195	-0.852195	11	-0.236721	0	0.236721	0.000000000000000E+000	0.236721	0.0000000E+000	0.000000000000000E+000	0.00388356
2	0	0	1	0	0	0	482.792	-0.899966	-0.900859	-4.31312	-0.856078	-0.856078	11	-0.237799	0	0.237799	0.000000000000000E+000	0.237799	0.0000000E+000	0.000000000000000E+000	0.00388552
2	0	0	1	0	0	0	483.692	-0.899966	-0.900439	-4.31163	-0.859957	-0.859957	11	-0.238877	0	0.238877	0.000000000000000E+000	0.238877	0.0000000E+000	0.000000000000000E+000	0.00388236
2	0	0	1	0	0	0	484.592	-0.899966	-0.900248	-4.30483	-0.863836	-0.863836	11	-0.239954	0	0.239954	0.000000000000000E+000	0.239954	0.0000000E+000	0.000000000000000E+000	0.00387541
2	0	0	1	0	0	0	485.492	-0.899966	-0.900305	-4.31762	-0.867716	-0.867716	11	-0.241032	0	0.241032	0.000000000000000E+000	0.241032	0.0000000E+000	0.000000000000000E+000	0.00388718
2	0	0	1	0	0	0	486.392	-0.899966	-0.900343	-4.30426	-0.871595	-0.871595	11	-0.24211	0	0.24211	0.000000000000000E+000	0.24211	0.0000000E+000	0.000000000000000E+000	0.00387531
2	0	0	1	0	0	0	487.292	-0.899966	-0.900515	-4.31725	-0.875476	-0.875476	11	-0.243188	0	0.243188	0.000000000000000E+000	0.243188	0.0000000E+000	0.000000000000000E+000	0.00388775
2	0	0	1	0	0	0	488.192	-0.899966	-0.900592	-4.30662	-0.879358	-0.879358	11	-0.244266	0	0.244266	0.000000000000000E+000	0.244266	0.0000000E+000	0.000000000000000E+000	0.00387851
2	0	0	1	0	0	0	489.092	-0.899966	-0.900229	-4.31019	-0.883238	-0.883238	11	-0.245344	0	0.245344	0.000000000000000E+000	0.245344	0.0000000E+000	0.000000000000000E+000	0.00388016
2	0	0	1	0	0	0	489.992	-0.899966	-0.900286	-4.30931	-0.887117	-0.887117	11	-0.246421	0	0.246421	0.000000000000000E+000	0.246421	0.0000000E+000	0.000000000000000E+000	0.00387962
2	0	0	1	0	0	0	490.892	-0.899966	-0.900706	-4.30774	-0.890995	-0.890995	11	-0.247499	0	0.247499	0.000000000000000E+000	0.247499	0.0000000E+000	0.000000000000000E+000	0.00388001
2	0	0	1	0	0	0	491.792	-0.899966	-0.900534	-4.31198	-0.894873	-0.894873	11	-0.248576	0	0.248576	0.000000000000000E+000	0.248576	0.0000000E+000	0.000000000000000E+000	0.00388309
2	0	0	1	0	0	0	492.692	-0.899966	-0.900286	-4.48249	-0.898843	-0.898843	11	-0.249679	0	0.249679	0.000000000000000E+000	0.249679	0.0000000E+000	0.000000000000000E+000	0.00403553
2	0	0	1	0	0	0	493.592	-0.899966	-0.899866	-4.44782	-0.902855	-0.902855	11	-0.250793	0	0.250793	0.000000000000000E+000	0.250793	0.0000000E+000	0.000000000000000E+000	0.00400244
2	0	0	1	0	0	0	494.492	-0.899966	-0.900496	-4.44919	-0.906862	-0.906862	11	-0.251906	0	0.251906	0.000000000000000E+000	0.251906	0.0000000E+000	0.000000000000000E+000	0.00400648
2	0	0	1	0	0	0	495.392	-0.899966	-0.900515	-4.44701	-0.910867	-0.910867	11	-0.253019	0	0.253019	0.000000000000000E+000	0.253019	0.0000000E+000	0.000000000000000E+000	0.0040046
2	0	0	1	0	0	0	496.292	-0.899966	-0.900114	-4.44719	-0.914872	-0.914872	11	-0.254131	0	0.254131	0.000000000000000E+000	0.254131	0.0000000E+000	0.000000000000000E+000	0.00400298
2	0	0	1	0	0	0	497.192	-0.899966	-0.900133	-4.44085	-0.918875	-0.918875	11	-0.255243	0	0.255243	0.000000000000000E+000	0.255243	0.0000000E+000	0.000000000000000E+000	0.00399736
2	0	0	1	0	0	0	498.092	-0.899966	-0.900477	-4.43862	-0.922877	-0.922877	11	-0.256355	0	0.256355	0.000000000000000E+000	0.256355	0.0000000E+000	0.000000000000000E+000	0.00399688
2	0	0	1	0	0	0	498.992	-0.899966	-0.900172	-4.43976	-0.926876	-0.926876	11	-0.257466	0	0.257466	0.000000000000000E+000	0.257466	0.0000000E+000	0.000000000000000E+000	0.00399655
2	0	0	1	0	0	0	499.892	-0.899966	-0.900592	-4.43794	-0.930873	-0.930873	11	-0.258576	0	0.258576	0.000000000000000E+000	0.258576	0.0000000E+000	0.000000000000000E+000	0.00399677
2	0	0	1	0	0	0	500.792	-0.899966	-0.90042	-4.43565	-0.934872	-0.934872	11	-0.259687	0	0.259687	0.000000000000000E+000	0.259687	0.0000000E+000	0.000000000000000E+000	0.00399394
2	0	0	1	0	0	0	501.692	-0.899966	-0.900515	-4.43794	-0.938868	-0.938868	11	-0.260797	0	0.260797	0.000000000000000E+000	0.260797	0.0000000E+000	0.000000000000000E+000	0.00399643
2	0	0	1	0	0	0	502.592	-0.899966	-0.900458	-4.43108	-0.942863	-0.942863	11	-0.261906	0	0.261906	0.000000000000000E+000	0.261906	0.0000000E+000	0.000000000000000E+000	0.00399
2	0	0	1	0	0	0	503.492	-0.899966	-0.900477	-4.43608	-0.946857	-0.946857	11	-0.263016	0	0.263016	0.000000000000000E+000	0.263016	0.0000000E+000	0.000000000000000E+000	0.00399459
2	0	0	1	0	0	0	504.392	-0.899966	-0.900324	-4.43416	-0.95085	-0.95085	11	-0.264125	0	0.264125	0.000000000000000E+000	0.264125	0.0000000E+000	0.000000000000000E+000	0.00399218
2	0	0	1	0	0	0	504.785	-0.899966	-0.900153	-4.439	-0.952593	-0.952593	11	-0.264609	0	0.264609	0.000000000000000E+000	0.264609	0.0000000E+000	0.000000000000000E+000	0.00399578