File: ZnPVAECH_1 RDE 3 ECH 1600 rpm K-L.mpt
EC-Lab ASCII FILE
Nb header lines : 66

Chronoamperometry / Chronocoulometry

Run on channel : 5 (SN 6729)
User :
CE vs. WE compliance from -10 V to 10 V
Electrode connection : standard
Potential control : Ewe
Ewe ctrl range : min = -2.50 V, max = 2.50 V
Safety Limits :
	Do not start on E overload
Acquisition started on : 04/04/2022 12:47:39.364
Technique started on : 04/04/2022 12:47:44.512
Loaded Setting File :  NONE
Saved on :
	File : 04-22-22-Zn PVA ECH 1600 rpm K-L RDE1_02_CA_C05.mpr
	Directory : \\research-scb.egr.msu.edu\research-scb\Mindy\Koutecky Levich\Zn PVA\ECH\04-04-22\
	Host : 35.9.136.210
Device : VSP (SN 0012)
Address : 35.9.137.65
EC-Lab for windows v11.43 (software)
Internet server v11.40 (firmware)
Command interpretor v11.40 (firmware)
Electrode material : Au/Pd
Initial state :
Electrolyte : NaCl (0.2M)
Comments : Fe(CN)63-/Fe(CN)64- 5.10-3 M
Reference electrode : SCE Saturated Calomel Electrode (0.241 V)
Electrode surface area : 0.196 cm²
Characteristic mass : 0.001 g
Equivalent Weight : 0.000 g/eq.
Density : 0.000 g/cm3
Volume (V) : 0.001 cm³
Cycle Definition : Charge/Discharge alternance
Ei (V)              -0.100
vs.                 Ref
ti (h:m:s)          0:10:0.0000
Imax                pass
unit Imax           mA
Imin                pass
unit Imin           mA
dQM                 0.000
unit dQM            mA.h
record              <I>
dI                  5.000
unit dI             µA
dQ                  0.000
unit dQ             mA.h
dt (s)              0.1000
dta (s)             0.1000
E range min (V)     -2.500
E range max (V)     2.500
I Range             Auto
I Range min         Unset
I Range max         Unset
I Range init        Unset
Bandwidth           5
goto Ns'            0
nc cycles           0

Modify on : 04/04/2022 12:48
Ei (V)              -1.000

mode	ox/red	error	control changes	Ns changes	counter inc.	Ns	time/s	control/V	Ewe/V	<I>/mA	dQ/C	(Q-Qo)/C	I Range	Q charge/discharge/mA.h	half cycle	Q discharge/mA.h	Q charge/mA.h	Capacity/mA.h	Efficiency/%	cycle number	P/W
2	1	0	0	0	0	0	5.1484	-0.100008	-0.100095	2.72274	0.000105743	0.000105743	11	2.9373e-05	0	0.000000000000000E+000	2.9373e-05	2.9373e-05	0.0000000E+000	0.000000000000000E+000	-0.000272532
2	1	0	0	0	0	0	6.9716	-0.100008	-0.100343	0.302046	0.000998734	0.000998734	12	0.000277426	0	0.000000000000000E+000	0.000277426	0.000277426	0.0000000E+000	0.000000000000000E+000	-3.03081e-05
2	1	0	0	0	0	0	8.7716	-0.100008	-0.100247	0.376162	0.00159538	0.00159538	12	0.000443162	0	0.000000000000000E+000	0.000443162	0.000443162	0.0000000E+000	0.000000000000000E+000	-3.77093e-05
2	1	0	0	0	0	0	10.5716	-0.100008	-0.100075	0.488845	0.00237785	0.00237785	12	0.000660514	0	0.000000000000000E+000	0.000660514	0.000660514	0.0000000E+000	0.000000000000000E+000	-4.89214e-05
2	1	0	0	0	0	0	12.3716	-0.100008	-0.100381	0.586836	0.00335466	0.00335466	12	0.00093185	0	0.000000000000000E+000	0.00093185	0.00093185	0.0000000E+000	0.000000000000000E+000	-5.89072e-05
2	1	0	0	0	0	0	14.1716	-0.100008	-0.100228	0.654269	0.0044781	0.0044781	12	0.00124392	0	0.000000000000000E+000	0.00124392	0.00124392	0.0000000E+000	0.000000000000000E+000	-6.55763e-05
2	1	0	0	0	0	0	15.9716	-0.100008	-0.100362	0.707077	0.0057067	0.0057067	12	0.00158519	0	0.000000000000000E+000	0.00158519	0.00158519	0.0000000E+000	0.000000000000000E+000	-7.09636e-05
2	1	0	0	0	0	0	17.7716	-0.100008	-0.100209	0.760941	0.00702842	0.00702842	12	0.00195234	0	0.000000000000000E+000	0.00195234	0.00195234	0.0000000E+000	0.000000000000000E+000	-7.62532e-05
2	1	0	0	0	0	0	19.5716	-0.100008	-0.100133	0.818493	0.00845277	0.00845277	12	0.00234799	0	0.000000000000000E+000	0.00234799	0.00234799	0.0000000E+000	0.000000000000000E+000	-8.19579e-05
2	0	0	1	0	0	0	21.3716	-1.00001	-1.00048	-6.64516	-0.00395869	-0.00395869	11	-0.00347046	1	0.00347046	0.000000000000000E+000	0.00347046	0.0000000E+000	0.000000000000000E+000	0.00664833
2	0	0	1	0	0	0	23.1716	-1.00001	-1.00036	-5.11434	-0.0138407	-0.0138407	11	-0.00621545	1	0.00621545	0.000000000000000E+000	0.00621545	0.0000000E+000	0.000000000000000E+000	0.0051162
2	0	0	1	0	0	0	24.9716	-1.00001	-1.00055	-5.03297	-0.0229642	-0.0229642	11	-0.00874976	1	0.00874976	0.000000000000000E+000	0.00874976	0.0000000E+000	0.000000000000000E+000	0.00503576
2	0	0	1	0	0	0	26.7716	-1.00001	-1.00053	-4.98519	-0.0319751	-0.0319751	11	-0.0112528	1	0.0112528	0.000000000000000E+000	0.0112528	0.0000000E+000	0.000000000000000E+000	0.00498785
2	0	0	1	0	0	0	28.5716	-1.00001	-1.00063	-4.93668	-0.0408991	-0.0408991	11	-0.0137317	1	0.0137317	0.000000000000000E+000	0.0137317	0.0000000E+000	0.000000000000000E+000	0.00493979
2	0	0	1	0	0	0	30.3716	-1.00001	-1.00059	-4.91425	-0.0497682	-0.0497682	11	-0.0161953	1	0.0161953	0.000000000000000E+000	0.0161953	0.0000000E+000	0.000000000000000E+000	0.00491716
2	0	0	1	0	0	0	32.1716	-1.00001	-1.00038	-4.85275	-0.058594	-0.058594	11	-0.0186469	1	0.0186469	0.000000000000000E+000	0.0186469	0.0000000E+000	0.000000000000000E+000	0.0048546
2	0	0	1	0	0	0	33.9716	-1.00001	-1.00032	-4.86395	-0.0673649	-0.0673649	11	-0.0210833	1	0.0210833	0.000000000000000E+000	0.0210833	0.0000000E+000	0.000000000000000E+000	0.00486553
2	0	0	1	0	0	0	35.7716	-1.00001	-1.00029	-4.84253	-0.0761152	-0.0761152	11	-0.0235139	1	0.0235139	0.000000000000000E+000	0.0235139	0.0000000E+000	0.000000000000000E+000	0.00484392
2	0	0	1	0	0	0	37.5716	-1.00001	-1.00046	-4.87827	-0.0849042	-0.0849042	11	-0.0259553	1	0.0259553	0.000000000000000E+000	0.0259553	0.0000000E+000	0.000000000000000E+000	0.0048805
2	0	0	1	0	0	0	39.3716	-1.00001	-1.00031	-4.89127	-0.093702	-0.093702	11	-0.0283992	1	0.0283992	0.000000000000000E+000	0.0283992	0.0000000E+000	0.000000000000000E+000	0.00489276
2	0	0	1	0	0	0	41.1716	-1.00001	-1.00078	-4.88202	-0.102524	-0.102524	11	-0.0308497	1	0.0308497	0.000000000000000E+000	0.0308497	0.0000000E+000	0.000000000000000E+000	0.00488584
2	0	0	1	0	0	0	42.9716	-1.00001	-0.999981	-4.93994	-0.111351	-0.111351	11	-0.0333016	1	0.0333016	0.000000000000000E+000	0.0333016	0.0000000E+000	0.000000000000000E+000	0.00493984
2	0	0	1	0	0	0	44.7716	-1.00001	-1.00048	-4.95474	-0.120239	-0.120239	11	-0.0357706	1	0.0357706	0.000000000000000E+000	0.0357706	0.0000000E+000	0.000000000000000E+000	0.0049571
2	0	0	1	0	0	0	46.5716	-1.00001	-1.00023	-4.97085	-0.129151	-0.129151	11	-0.0382461	1	0.0382461	0.000000000000000E+000	0.0382461	0.0000000E+000	0.000000000000000E+000	0.00497199
2	0	0	1	0	0	0	48.3716	-1.00001	-1.00036	-4.98263	-0.138112	-0.138112	11	-0.0407352	1	0.0407352	0.000000000000000E+000	0.0407352	0.0000000E+000	0.000000000000000E+000	0.00498444
2	0	0	1	0	0	0	50.1716	-1.00001	-1.00073	-4.97768	-0.147097	-0.147097	11	-0.0432311	1	0.0432311	0.000000000000000E+000	0.0432311	0.0000000E+000	0.000000000000000E+000	0.00498129
2	0	0	1	0	0	0	51.9716	-1.00001	-1.00038	-5.03027	-0.156156	-0.156156	11	-0.0457474	1	0.0457474	0.000000000000000E+000	0.0457474	0.0000000E+000	0.000000000000000E+000	0.00503219
2	0	0	1	0	0	0	53.7716	-1.00001	-1.00046	-5.05191	-0.16526	-0.16526	11	-0.0482764	1	0.0482764	0.000000000000000E+000	0.0482764	0.0000000E+000	0.000000000000000E+000	0.00505423
2	0	0	1	0	0	0	55.5716	-1.00001	-0.999943	-5.10968	-0.174433	-0.174433	11	-0.0508244	1	0.0508244	0.000000000000000E+000	0.0508244	0.0000000E+000	0.000000000000000E+000	0.00510938
2	0	0	1	0	0	0	57.3716	-1.00001	-1.00019	-5.12307	-0.183636	-0.183636	11	-0.0533809	1	0.0533809	0.000000000000000E+000	0.0533809	0.0000000E+000	0.000000000000000E+000	0.00512405
2	0	0	1	0	0	0	59.1716	-1.00001	-1.00032	-5.14734	-0.192905	-0.192905	11	-0.0559555	1	0.0559555	0.000000000000000E+000	0.0559555	0.0000000E+000	0.000000000000000E+000	0.00514901
2	0	0	1	0	0	0	60.9716	-1.00001	-1.00057	-5.16099	-0.202212	-0.202212	11	-0.0585407	1	0.0585407	0.000000000000000E+000	0.0585407	0.0000000E+000	0.000000000000000E+000	0.00516395
2	0	0	1	0	0	0	62.7716	-1.00001	-0.999924	-5.19073	-0.211557	-0.211557	11	-0.0611366	1	0.0611366	0.000000000000000E+000	0.0611366	0.0000000E+000	0.000000000000000E+000	0.00519033
2	0	0	1	0	0	0	64.5716	-1.00001	-0.999904	-5.18037	-0.220926	-0.220926	11	-0.0637391	1	0.0637391	0.000000000000000E+000	0.0637391	0.0000000E+000	0.000000000000000E+000	0.00517988
2	0	0	1	0	0	0	66.3716	-1.00001	-1.00029	-5.21043	-0.230306	-0.230306	11	-0.0663446	1	0.0663446	0.000000000000000E+000	0.0663446	0.0000000E+000	0.000000000000000E+000	0.00521192
2	0	0	1	0	0	0	68.1716	-1.00001	-1.0004	-5.23974	-0.239758	-0.239758	11	-0.0689704	1	0.0689704	0.000000000000000E+000	0.0689704	0.0000000E+000	0.000000000000000E+000	0.00524184
2	0	0	1	0	0	0	69.9716	-1.00001	-1.00027	-5.24881	-0.249228	-0.249228	11	-0.0716009	1	0.0716009	0.000000000000000E+000	0.0716009	0.0000000E+000	0.000000000000000E+000	0.00525021
2	0	0	1	0	0	0	71.7716	-1.00001	-1.00059	-5.27039	-0.258715	-0.258715	11	-0.074236	1	0.074236	0.000000000000000E+000	0.074236	0.0000000E+000	0.000000000000000E+000	0.00527351
2	0	0	1	0	0	0	73.5716	-1.00001	-1.00025	-5.28889	-0.268234	-0.268234	11	-0.0768803	1	0.0768803	0.000000000000000E+000	0.0768803	0.0000000E+000	0.000000000000000E+000	0.0052902
2	0	0	1	0	0	0	75.3716	-1.00001	-1.0001	-5.31681	-0.277812	-0.277812	11	-0.0795409	1	0.0795409	0.000000000000000E+000	0.0795409	0.0000000E+000	0.000000000000000E+000	0.00531731
2	0	0	1	0	0	0	77.1716	-1.00001	-1.00002	-5.33344	-0.28741	-0.28741	11	-0.0822071	1	0.0822071	0.000000000000000E+000	0.0822071	0.0000000E+000	0.000000000000000E+000	0.00533354
2	0	0	1	0	0	0	78.9716	-1.00001	-1.00052	-5.36336	-0.297073	-0.297073	11	-0.084891	1	0.084891	0.000000000000000E+000	0.084891	0.0000000E+000	0.000000000000000E+000	0.00536613
2	0	0	1	0	0	0	80.7716	-1.00001	-1.00013	-5.36747	-0.306743	-0.306743	11	-0.0875772	1	0.0875772	0.000000000000000E+000	0.0875772	0.0000000E+000	0.000000000000000E+000	0.00536818
2	0	0	1	0	0	0	82.5716	-1.00001	-1.00027	-5.39653	-0.316418	-0.316418	11	-0.0902648	1	0.0902648	0.000000000000000E+000	0.0902648	0.0000000E+000	0.000000000000000E+000	0.00539797
2	0	0	1	0	0	0	84.3716	-1.00001	-1.00017	-5.35227	-0.326103	-0.326103	11	-0.0929549	1	0.0929549	0.000000000000000E+000	0.0929549	0.0000000E+000	0.000000000000000E+000	0.00535319
2	0	0	1	0	0	0	86.1716	-1.00001	-1.00076	-5.37633	-0.3358	-0.3358	11	-0.0956486	1	0.0956486	0.000000000000000E+000	0.0956486	0.0000000E+000	0.000000000000000E+000	0.00538043
2	0	0	1	0	0	0	87.9716	-1.00001	-1.00006	-5.39857	-0.345524	-0.345524	11	-0.0983498	1	0.0983498	0.000000000000000E+000	0.0983498	0.0000000E+000	0.000000000000000E+000	0.00539888
2	0	0	1	0	0	0	89.7716	-1.00001	-1.00036	-5.42509	-0.355255	-0.355255	11	-0.101053	1	0.101053	0.000000000000000E+000	0.101053	0.0000000E+000	0.000000000000000E+000	0.00542705
2	0	0	1	0	0	0	91.5716	-1.00001	-1.00015	-5.43781	-0.364999	-0.364999	11	-0.103759	1	0.103759	0.000000000000000E+000	0.103759	0.0000000E+000	0.000000000000000E+000	0.00543864
2	0	0	1	0	0	0	93.3716	-1.00001	-1.00071	-5.38584	-0.374704	-0.374704	11	-0.106455	1	0.106455	0.000000000000000E+000	0.106455	0.0000000E+000	0.000000000000000E+000	0.00538964
2	0	0	1	0	0	0	95.1716	-1.00001	-1.00029	-5.37658	-0.384405	-0.384405	11	-0.10915	1	0.10915	0.000000000000000E+000	0.10915	0.0000000E+000	0.000000000000000E+000	0.00537812
2	0	0	1	0	0	0	96.9716	-1.00001	-1.00032	-5.3505	-0.394082	-0.394082	11	-0.111838	1	0.111838	0.000000000000000E+000	0.111838	0.0000000E+000	0.000000000000000E+000	0.00535224
2	0	0	1	0	0	0	98.7716	-1.00001	-1.00015	-5.38677	-0.403772	-0.403772	11	-0.11453	1	0.11453	0.000000000000000E+000	0.11453	0.0000000E+000	0.000000000000000E+000	0.0053876
2	0	0	1	0	0	0	100.572	-1.00001	-0.999981	-5.41148	-0.413518	-0.413518	11	-0.117237	1	0.117237	0.000000000000000E+000	0.117237	0.0000000E+000	0.000000000000000E+000	0.00541137
2	0	0	1	0	0	0	102.372	-1.00001	-1.00011	-5.41553	-0.423271	-0.423271	11	-0.119946	1	0.119946	0.000000000000000E+000	0.119946	0.0000000E+000	0.000000000000000E+000	0.00541615
2	0	0	1	0	0	0	104.172	-1.00001	-1.00023	-5.42204	-0.433012	-0.433012	11	-0.122652	1	0.122652	0.000000000000000E+000	0.122652	0.0000000E+000	0.000000000000000E+000	0.00542328
2	0	0	1	0	0	0	105.972	-1.00001	-1.00034	-5.42402	-0.442781	-0.442781	11	-0.125365	1	0.125365	0.000000000000000E+000	0.125365	0.0000000E+000	0.000000000000000E+000	0.00542588
2	0	0	1	0	0	0	107.772	-1.00001	-1.00002	-5.44662	-0.452559	-0.452559	11	-0.128082	1	0.128082	0.000000000000000E+000	0.128082	0.0000000E+000	0.000000000000000E+000	0.00544673
2	0	0	1	0	0	0	109.572	-1.00001	-1.00059	-5.4929	-0.46239	-0.46239	11	-0.130813	1	0.130813	0.000000000000000E+000	0.130813	0.0000000E+000	0.000000000000000E+000	0.00549615
2	0	0	1	0	0	0	111.372	-1.00001	-1.00019	-5.45632	-0.472276	-0.472276	11	-0.133559	1	0.133559	0.000000000000000E+000	0.133559	0.0000000E+000	0.000000000000000E+000	0.00545736
2	0	0	1	0	0	0	113.172	-1.00001	-1.0001	-5.51359	-0.482142	-0.482142	11	-0.136299	1	0.136299	0.000000000000000E+000	0.136299	0.0000000E+000	0.000000000000000E+000	0.00551411
2	0	0	1	0	0	0	114.972	-1.00001	-1.00021	-5.50584	-0.492087	-0.492087	11	-0.139062	1	0.139062	0.000000000000000E+000	0.139062	0.0000000E+000	0.000000000000000E+000	0.005507
2	0	0	1	0	0	0	116.772	-1.00001	-1.00044	-5.48407	-0.501993	-0.501993	11	-0.141813	1	0.141813	0.000000000000000E+000	0.141813	0.0000000E+000	0.000000000000000E+000	0.00548648
2	0	0	1	0	0	0	118.572	-1.00001	-1.00086	-5.5027	-0.511873	-0.511873	11	-0.144558	1	0.144558	0.000000000000000E+000	0.144558	0.0000000E+000	0.000000000000000E+000	0.00550742
2	0	0	1	0	0	0	120.372	-1.00001	-1.00013	-5.48214	-0.52173	-0.52173	11	-0.147296	1	0.147296	0.000000000000000E+000	0.147296	0.0000000E+000	0.000000000000000E+000	0.00548287
2	0	0	1	0	0	0	122.172	-1.00001	-1.00015	-5.47403	-0.53156	-0.53156	11	-0.150026	1	0.150026	0.000000000000000E+000	0.150026	0.0000000E+000	0.000000000000000E+000	0.00547487
2	0	0	1	0	0	0	123.972	-1.00001	-1.0004	-5.46254	-0.541372	-0.541372	11	-0.152752	1	0.152752	0.000000000000000E+000	0.152752	0.0000000E+000	0.000000000000000E+000	0.00546473
2	0	0	1	0	0	0	125.772	-1.00001	-1.00082	-5.44869	-0.551186	-0.551186	11	-0.155478	1	0.155478	0.000000000000000E+000	0.155478	0.0000000E+000	0.000000000000000E+000	0.00545316
2	0	0	1	0	0	0	127.572	-1.00001	-0.999713	-5.55003	-0.561047	-0.561047	11	-0.158217	1	0.158217	0.000000000000000E+000	0.158217	0.0000000E+000	0.000000000000000E+000	0.00554844
2	0	0	1	0	0	0	129.372	-1.00001	-1.00032	-5.57145	-0.571082	-0.571082	11	-0.161005	1	0.161005	0.000000000000000E+000	0.161005	0.0000000E+000	0.000000000000000E+000	0.00557325
2	0	0	1	0	0	0	131.172	-1.00001	-1.00044	-5.54971	-0.581066	-0.581066	11	-0.163778	1	0.163778	0.000000000000000E+000	0.163778	0.0000000E+000	0.000000000000000E+000	0.00555215
2	0	0	1	0	0	0	132.972	-1.00001	-1.00038	-5.61571	-0.591102	-0.591102	11	-0.166566	1	0.166566	0.000000000000000E+000	0.166566	0.0000000E+000	0.000000000000000E+000	0.00561786
2	0	0	1	0	0	0	134.772	-1.00001	-1.00042	-5.64462	-0.601282	-0.601282	11	-0.169394	1	0.169394	0.000000000000000E+000	0.169394	0.0000000E+000	0.000000000000000E+000	0.00564699
2	0	0	1	0	0	0	136.572	-1.00001	-1.00002	-5.65165	-0.61142	-0.61142	11	-0.17221	1	0.17221	0.000000000000000E+000	0.17221	0.0000000E+000	0.000000000000000E+000	0.00565176
2	0	0	1	0	0	0	138.372	-1.00001	-1.00073	-5.59876	-0.621534	-0.621534	11	-0.175019	1	0.175019	0.000000000000000E+000	0.175019	0.0000000E+000	0.000000000000000E+000	0.00560282
2	0	0	1	0	0	0	140.172	-1.00001	-1.00036	-5.66365	-0.631683	-0.631683	11	-0.177838	1	0.177838	0.000000000000000E+000	0.177838	0.0000000E+000	0.000000000000000E+000	0.0056657
2	0	0	1	0	0	0	141.972	-1.00001	-1.00019	-5.67454	-0.641887	-0.641887	11	-0.180673	1	0.180673	0.000000000000000E+000	0.180673	0.0000000E+000	0.000000000000000E+000	0.00567562
2	0	0	1	0	0	0	143.772	-1.00001	-1.00038	-5.68752	-0.65213	-0.65213	11	-0.183518	1	0.183518	0.000000000000000E+000	0.183518	0.0000000E+000	0.000000000000000E+000	0.00568969
2	0	0	1	0	0	0	145.572	-1.00001	-1.00021	-5.6933	-0.662381	-0.662381	11	-0.186365	1	0.186365	0.000000000000000E+000	0.186365	0.0000000E+000	0.000000000000000E+000	0.00569449
2	0	0	1	0	0	0	147.372	-1.00001	-1.00019	-5.69863	-0.672644	-0.672644	11	-0.189217	1	0.189217	0.000000000000000E+000	0.189217	0.0000000E+000	0.000000000000000E+000	0.00569972
2	0	0	1	0	0	0	149.172	-1.00001	-1.00052	-5.68057	-0.682878	-0.682878	11	-0.192059	1	0.192059	0.000000000000000E+000	0.192059	0.0000000E+000	0.000000000000000E+000	0.0056835
2	0	0	1	0	0	0	150.972	-1.00001	-1.00057	-5.67637	-0.693122	-0.693122	11	-0.194905	1	0.194905	0.000000000000000E+000	0.194905	0.0000000E+000	0.000000000000000E+000	0.00567962
2	0	0	1	0	0	0	152.772	-1.00001	-1.00036	-5.60505	-0.70328	-0.70328	11	-0.197726	1	0.197726	0.000000000000000E+000	0.197726	0.0000000E+000	0.000000000000000E+000	0.00560708
2	0	0	1	0	0	0	154.572	-1.00001	-1.00052	-5.58894	-0.713348	-0.713348	11	-0.200523	1	0.200523	0.000000000000000E+000	0.200523	0.0000000E+000	0.000000000000000E+000	0.00559182
2	0	0	1	0	0	0	156.372	-1.00001	-1.00027	-5.63642	-0.723415	-0.723415	11	-0.203319	1	0.203319	0.000000000000000E+000	0.203319	0.0000000E+000	0.000000000000000E+000	0.00563792
2	0	0	1	0	0	0	158.172	-1.00001	-1.00048	-5.6714	-0.733583	-0.733583	11	-0.206144	1	0.206144	0.000000000000000E+000	0.206144	0.0000000E+000	0.000000000000000E+000	0.0056741
2	0	0	1	0	0	0	159.972	-1.00001	-1.00032	-5.66147	-0.743788	-0.743788	11	-0.208979	1	0.208979	0.000000000000000E+000	0.208979	0.0000000E+000	0.000000000000000E+000	0.0056633
2	0	0	1	0	0	0	161.772	-1.00001	-1.00061	-5.64621	-0.753988	-0.753988	11	-0.211812	1	0.211812	0.000000000000000E+000	0.211812	0.0000000E+000	0.000000000000000E+000	0.00564966
2	0	0	1	0	0	0	163.572	-1.00001	-1.00015	-5.64613	-0.764141	-0.764141	11	-0.214632	1	0.214632	0.000000000000000E+000	0.214632	0.0000000E+000	0.000000000000000E+000	0.00564699
2	0	0	1	0	0	0	165.372	-1.00001	-1.0001	-6.06837	-0.774944	-0.774944	11	-0.217633	1	0.217633	0.000000000000000E+000	0.217633	0.0000000E+000	0.000000000000000E+000	0.00606895
2	0	0	1	0	0	0	167.172	-1.00001	-1.00015	-6.11251	-0.785903	-0.785903	11	-0.220677	1	0.220677	0.000000000000000E+000	0.220677	0.0000000E+000	0.000000000000000E+000	0.00611344
2	0	0	1	0	0	0	168.972	-1.00001	-1.00034	-6.1448	-0.796951	-0.796951	11	-0.223746	1	0.223746	0.000000000000000E+000	0.223746	0.0000000E+000	0.000000000000000E+000	0.00614691
2	0	0	1	0	0	0	170.772	-1.00001	-1.00034	-6.17172	-0.808034	-0.808034	11	-0.226825	1	0.226825	0.000000000000000E+000	0.226825	0.0000000E+000	0.000000000000000E+000	0.00617384
2	0	0	1	0	0	0	172.572	-1.00001	-1.00029	-6.17553	-0.819138	-0.819138	11	-0.229909	1	0.229909	0.000000000000000E+000	0.229909	0.0000000E+000	0.000000000000000E+000	0.0061773
2	0	0	1	0	0	0	174.372	-1.00001	-1.0005	-6.19064	-0.830263	-0.830263	11	-0.232999	1	0.232999	0.000000000000000E+000	0.232999	0.0000000E+000	0.000000000000000E+000	0.00619371
2	0	0	1	0	0	0	176.172	-1.00001	-1.00057	-6.18511	-0.841402	-0.841402	11	-0.236094	1	0.236094	0.000000000000000E+000	0.236094	0.0000000E+000	0.000000000000000E+000	0.00618865
2	0	0	1	0	0	0	177.972	-1.00001	-1.00057	-6.16577	-0.852521	-0.852521	11	-0.239182	1	0.239182	0.000000000000000E+000	0.239182	0.0000000E+000	0.000000000000000E+000	0.0061693
2	0	0	1	0	0	0	179.772	-1.00001	-1.00036	-6.19454	-0.863651	-0.863651	11	-0.242274	1	0.242274	0.000000000000000E+000	0.242274	0.0000000E+000	0.000000000000000E+000	0.00619678
2	0	0	1	0	0	0	181.572	-1.00001	-1.00044	-6.18789	-0.874806	-0.874806	11	-0.245372	1	0.245372	0.000000000000000E+000	0.245372	0.0000000E+000	0.000000000000000E+000	0.00619061
2	0	0	1	0	0	0	183.372	-1.00001	-1.00032	-6.14838	-0.885902	-0.885902	11	-0.248455	1	0.248455	0.000000000000000E+000	0.248455	0.0000000E+000	0.000000000000000E+000	0.00615038
2	0	0	1	0	0	0	185.172	-1.00001	-1.00063	-6.2153	-0.897005	-0.897005	11	-0.251539	1	0.251539	0.000000000000000E+000	0.251539	0.0000000E+000	0.000000000000000E+000	0.00621922
2	0	0	1	0	0	0	186.972	-1.00001	-1.00042	-6.23521	-0.908204	-0.908204	11	-0.25465	1	0.25465	0.000000000000000E+000	0.25465	0.0000000E+000	0.000000000000000E+000	0.00623783
2	0	0	1	0	0	0	188.772	-1.00001	-1.00069	-6.21937	-0.919403	-0.919403	11	-0.257761	1	0.257761	0.000000000000000E+000	0.257761	0.0000000E+000	0.000000000000000E+000	0.00622365
2	0	0	1	0	0	0	190.572	-1.00001	-1.00002	-6.21513	-0.930583	-0.930583	11	-0.260866	1	0.260866	0.000000000000000E+000	0.260866	0.0000000E+000	0.000000000000000E+000	0.00621524
2	0	0	1	0	0	0	192.372	-1.00001	-1.00023	-6.2164	-0.941759	-0.941759	11	-0.26397	1	0.26397	0.000000000000000E+000	0.26397	0.0000000E+000	0.000000000000000E+000	0.00621782
2	0	0	1	0	0	0	194.172	-1.00001	-1.00036	-6.2428	-0.952965	-0.952965	11	-0.267083	1	0.267083	0.000000000000000E+000	0.267083	0.0000000E+000	0.000000000000000E+000	0.00624506
2	0	0	1	0	0	0	195.972	-1.00001	-1.00046	-6.22249	-0.964185	-0.964185	11	-0.2702	1	0.2702	0.000000000000000E+000	0.2702	0.0000000E+000	0.000000000000000E+000	0.00622534
2	0	0	1	0	0	0	197.772	-1.00001	-1.0001	-6.21496	-0.975383	-0.975383	11	-0.273311	1	0.273311	0.000000000000000E+000	0.273311	0.0000000E+000	0.000000000000000E+000	0.00621555
2	0	0	1	0	0	0	199.572	-1.00001	-1.00021	-6.19736	-0.986565	-0.986565	11	-0.276417	1	0.276417	0.000000000000000E+000	0.276417	0.0000000E+000	0.000000000000000E+000	0.00619867
2	0	0	1	0	0	0	201.372	-1.00001	-1.00032	-6.18713	-0.997729	-0.997729	11	-0.279518	1	0.279518	0.000000000000000E+000	0.279518	0.0000000E+000	0.000000000000000E+000	0.00618914
2	0	0	1	0	0	0	203.172	-1.00001	-1.00032	-6.18752	-1.00888	-1.00888	11	-0.282616	1	0.282616	0.000000000000000E+000	0.282616	0.0000000E+000	0.000000000000000E+000	0.00618953
2	0	0	1	0	0	0	204.972	-1.00001	-1.00031	-6.20663	-1.02004	-1.02004	11	-0.285714	1	0.285714	0.000000000000000E+000	0.285714	0.0000000E+000	0.000000000000000E+000	0.00620852
2	0	0	1	0	0	0	206.772	-1.00001	-0.999981	-6.22408	-1.03122	-1.03122	11	-0.288822	1	0.288822	0.000000000000000E+000	0.288822	0.0000000E+000	0.000000000000000E+000	0.00622396
2	0	0	1	0	0	0	208.572	-1.00001	-1.00015	-6.20187	-1.04239	-1.04239	11	-0.291924	1	0.291924	0.000000000000000E+000	0.291924	0.0000000E+000	0.000000000000000E+000	0.00620282
2	0	0	1	0	0	0	210.372	-1.00001	-1.00027	-5.67946	-1.05284	-1.05284	11	-0.294825	1	0.294825	0.000000000000000E+000	0.294825	0.0000000E+000	0.000000000000000E+000	0.00568098
2	0	0	1	0	0	0	212.172	-1.00001	-1.00061	-5.61679	-1.06301	-1.06301	11	-0.29765	1	0.29765	0.000000000000000E+000	0.29765	0.0000000E+000	0.000000000000000E+000	0.00562022
2	0	0	1	0	0	0	213.972	-1.00001	-1.00038	-5.5902	-1.07312	-1.07312	11	-0.300461	1	0.300461	0.000000000000000E+000	0.300461	0.0000000E+000	0.000000000000000E+000	0.00559233
2	0	0	1	0	0	0	215.772	-1.00001	-1.00061	-5.55436	-1.08316	-1.08316	11	-0.303248	1	0.303248	0.000000000000000E+000	0.303248	0.0000000E+000	0.000000000000000E+000	0.00555776
2	0	0	1	0	0	0	217.572	-1.00001	-1.00021	-5.55781	-1.09316	-1.09316	11	-0.306027	1	0.306027	0.000000000000000E+000	0.306027	0.0000000E+000	0.000000000000000E+000	0.00555898
2	0	0	1	0	0	0	219.372	-1.00001	-1.00023	-5.56401	-1.10316	-1.10316	11	-0.308805	1	0.308805	0.000000000000000E+000	0.308805	0.0000000E+000	0.000000000000000E+000	0.00556529
2	0	0	1	0	0	0	221.172	-1.00001	-1.00025	-5.56075	-1.11316	-1.11316	11	-0.311583	1	0.311583	0.000000000000000E+000	0.311583	0.0000000E+000	0.000000000000000E+000	0.00556213
2	0	0	1	0	0	0	222.972	-1.00001	-1.0001	-5.57638	-1.12318	-1.12318	11	-0.314365	1	0.314365	0.000000000000000E+000	0.314365	0.0000000E+000	0.000000000000000E+000	0.00557692
2	0	0	1	0	0	0	224.772	-1.00001	-1.00034	-5.56021	-1.13322	-1.13322	11	-0.317153	1	0.317153	0.000000000000000E+000	0.317153	0.0000000E+000	0.000000000000000E+000	0.00556212
2	0	0	1	0	0	0	226.572	-1.00001	-1.00042	-5.19626	-1.14283	-1.14283	11	-0.319824	1	0.319824	0.000000000000000E+000	0.319824	0.0000000E+000	0.000000000000000E+000	0.00519844
2	0	0	1	0	0	0	228.372	-1.00001	-1.00034	-5.1569	-1.15215	-1.15215	11	-0.322412	1	0.322412	0.000000000000000E+000	0.322412	0.0000000E+000	0.000000000000000E+000	0.00515867
2	0	0	1	0	0	0	230.172	-1.00001	-1.00034	-5.10649	-1.16139	-1.16139	11	-0.324978	1	0.324978	0.000000000000000E+000	0.324978	0.0000000E+000	0.000000000000000E+000	0.00510824
2	0	0	1	0	0	0	231.972	-1.00001	-1.00065	-5.09376	-1.17057	-1.17057	11	-0.327529	1	0.327529	0.000000000000000E+000	0.327529	0.0000000E+000	0.000000000000000E+000	0.00509707
2	0	0	1	0	0	0	233.772	-1.00001	-1.00042	-5.09401	-1.17974	-1.17974	11	-0.330077	1	0.330077	0.000000000000000E+000	0.330077	0.0000000E+000	0.000000000000000E+000	0.00509615
2	0	0	1	0	0	0	235.572	-1.00001	-1.00048	-5.10448	-1.18892	-1.18892	11	-0.332627	1	0.332627	0.000000000000000E+000	0.332627	0.0000000E+000	0.000000000000000E+000	0.00510692
2	0	0	1	0	0	0	237.372	-1.00001	-1.00048	-5.07963	-1.19809	-1.19809	11	-0.335175	1	0.335175	0.000000000000000E+000	0.335175	0.0000000E+000	0.000000000000000E+000	0.00508205
2	0	0	1	0	0	0	239.172	-1.00001	-1.00061	-5.09501	-1.20727	-1.20727	11	-0.337725	1	0.337725	0.000000000000000E+000	0.337725	0.0000000E+000	0.000000000000000E+000	0.00509812
2	0	0	1	0	0	0	240.972	-1.00001	-1.0004	-5.07175	-1.21643	-1.21643	11	-0.340267	1	0.340267	0.000000000000000E+000	0.340267	0.0000000E+000	0.000000000000000E+000	0.00507378
2	0	0	1	0	0	0	242.772	-1.00001	-1.00025	-5.06887	-1.22554	-1.22554	11	-0.342799	1	0.342799	0.000000000000000E+000	0.342799	0.0000000E+000	0.000000000000000E+000	0.00507013
2	0	0	1	0	0	0	244.572	-1.00001	-1.00004	-5.05477	-1.23466	-1.23466	11	-0.345332	1	0.345332	0.000000000000000E+000	0.345332	0.0000000E+000	0.000000000000000E+000	0.00505496
2	0	0	1	0	0	0	246.372	-1.00001	-1.00034	-5.04974	-1.24376	-1.24376	11	-0.34786	1	0.34786	0.000000000000000E+000	0.34786	0.0000000E+000	0.000000000000000E+000	0.00505147
2	0	0	1	0	0	0	248.172	-1.00001	-1.00025	-5.04959	-1.25286	-1.25286	11	-0.350386	1	0.350386	0.000000000000000E+000	0.350386	0.0000000E+000	0.000000000000000E+000	0.00505084
2	0	0	1	0	0	0	249.972	-1.00001	-1.00025	-5.01264	-1.26194	-1.26194	11	-0.35291	1	0.35291	0.000000000000000E+000	0.35291	0.0000000E+000	0.000000000000000E+000	0.00501388
2	0	0	1	0	0	0	251.772	-1.00001	-1.00025	-4.4568	-1.27031	-1.27031	11	-0.355236	1	0.355236	0.000000000000000E+000	0.355236	0.0000000E+000	0.000000000000000E+000	0.0044579
2	0	0	1	0	0	0	253.572	-1.00001	-1.00032	-4.34254	-1.27818	-1.27818	11	-0.357422	1	0.357422	0.000000000000000E+000	0.357422	0.0000000E+000	0.000000000000000E+000	0.00434395
2	0	0	1	0	0	0	255.372	-1.00001	-1.00031	-4.25268	-1.28588	-1.28588	11	-0.35956	1	0.35956	0.000000000000000E+000	0.35956	0.0000000E+000	0.000000000000000E+000	0.00425398
2	0	0	1	0	0	0	257.172	-1.00001	-1.00046	-4.1713	-1.29346	-1.29346	11	-0.361664	1	0.361664	0.000000000000000E+000	0.361664	0.0000000E+000	0.000000000000000E+000	0.00417321
2	0	0	1	0	0	0	258.972	-1.00001	-1.00044	-4.16364	-1.30098	-1.30098	11	-0.363754	1	0.363754	0.000000000000000E+000	0.363754	0.0000000E+000	0.000000000000000E+000	0.00416547
2	0	0	1	0	0	0	260.772	-1.00001	-1.0004	-4.15084	-1.30852	-1.30852	11	-0.365849	1	0.365849	0.000000000000000E+000	0.365849	0.0000000E+000	0.000000000000000E+000	0.0041525
2	0	0	1	0	0	0	262.572	-1.00001	-1.00053	-4.15252	-1.31604	-1.31604	11	-0.367936	1	0.367936	0.000000000000000E+000	0.367936	0.0000000E+000	0.000000000000000E+000	0.00415474
2	0	0	1	0	0	0	264.372	-1.00001	-1.00013	-4.10972	-1.32352	-1.32352	11	-0.370015	1	0.370015	0.000000000000000E+000	0.370015	0.0000000E+000	0.000000000000000E+000	0.00411027
2	0	0	1	0	0	0	266.172	-1.00001	-1.00052	-4.10362	-1.33092	-1.33092	11	-0.372071	1	0.372071	0.000000000000000E+000	0.372071	0.0000000E+000	0.000000000000000E+000	0.00410573
2	0	0	1	0	0	0	267.972	-1.00001	-1.00019	-4.13788	-1.33835	-1.33835	11	-0.374135	1	0.374135	0.000000000000000E+000	0.374135	0.0000000E+000	0.000000000000000E+000	0.00413867
2	0	0	1	0	0	0	269.772	-1.00001	-1.0005	-4.12921	-1.34575	-1.34575	11	-0.376191	1	0.376191	0.000000000000000E+000	0.376191	0.0000000E+000	0.000000000000000E+000	0.00413126
2	0	0	1	0	0	0	271.572	-1.00001	-1.00025	-4.14098	-1.35319	-1.35319	11	-0.378257	1	0.378257	0.000000000000000E+000	0.378257	0.0000000E+000	0.000000000000000E+000	0.004142
2	0	0	1	0	0	0	273.372	-1.00001	-1.00031	-4.13041	-1.36061	-1.36061	11	-0.380319	1	0.380319	0.000000000000000E+000	0.380319	0.0000000E+000	0.000000000000000E+000	0.00413167
2	0	0	1	0	0	0	275.172	-1.00001	-1.00036	-4.11286	-1.368	-1.368	11	-0.382371	1	0.382371	0.000000000000000E+000	0.382371	0.0000000E+000	0.000000000000000E+000	0.00411436
2	0	0	1	0	0	0	276.972	-1.00001	-1.00048	-4.08071	-1.37534	-1.37534	11	-0.38441	1	0.38441	0.000000000000000E+000	0.38441	0.0000000E+000	0.000000000000000E+000	0.00408266
2	0	0	1	0	0	0	278.772	-1.00001	-1.0004	-4.06615	-1.38267	-1.38267	11	-0.386445	1	0.386445	0.000000000000000E+000	0.386445	0.0000000E+000	0.000000000000000E+000	0.00406778
2	0	0	1	0	0	0	280.572	-1.00001	-1.00025	-4.05979	-1.38998	-1.38998	11	-0.388477	1	0.388477	0.000000000000000E+000	0.388477	0.0000000E+000	0.000000000000000E+000	0.0040608
2	0	0	1	0	0	0	282.372	-1.00001	-1.00032	-4.05554	-1.39733	-1.39733	11	-0.390518	1	0.390518	0.000000000000000E+000	0.390518	0.0000000E+000	0.000000000000000E+000	0.00405686
2	0	0	1	0	0	0	284.172	-1.00001	-1.00027	-4.00498	-1.40462	-1.40462	11	-0.392542	1	0.392542	0.000000000000000E+000	0.392542	0.0000000E+000	0.000000000000000E+000	0.00400605
2	0	0	1	0	0	0	285.972	-1.00001	-1.00044	-4.04304	-1.41187	-1.41187	11	-0.394556	1	0.394556	0.000000000000000E+000	0.394556	0.0000000E+000	0.000000000000000E+000	0.00404481
2	0	0	1	0	0	0	287.772	-1.00001	-1.00023	-4.14326	-1.41931	-1.41931	11	-0.396622	1	0.396622	0.000000000000000E+000	0.396622	0.0000000E+000	0.000000000000000E+000	0.0041442
2	0	0	1	0	0	0	289.572	-1.00001	-1.00021	-4.15564	-1.42679	-1.42679	11	-0.398701	1	0.398701	0.000000000000000E+000	0.398701	0.0000000E+000	0.000000000000000E+000	0.00415651
2	0	0	1	0	0	0	291.372	-1.00001	-1.00038	-4.14835	-1.43424	-1.43424	11	-0.400772	1	0.400772	0.000000000000000E+000	0.400772	0.0000000E+000	0.000000000000000E+000	0.00414994
2	0	0	1	0	0	0	293.172	-1.00001	-1.00042	-4.13468	-1.44166	-1.44166	11	-0.402833	1	0.402833	0.000000000000000E+000	0.402833	0.0000000E+000	0.000000000000000E+000	0.00413641
2	0	0	1	0	0	0	294.972	-1.00001	-1.00046	-3.85642	-1.44888	-1.44888	11	-0.404837	1	0.404837	0.000000000000000E+000	0.404837	0.0000000E+000	0.000000000000000E+000	0.00385818
2	0	0	1	0	0	0	296.772	-1.00001	-1.0004	-3.69508	-1.45564	-1.45564	11	-0.406714	1	0.406714	0.000000000000000E+000	0.406714	0.0000000E+000	0.000000000000000E+000	0.00369656
2	0	0	1	0	0	0	298.572	-1.00001	-1.00057	-3.60719	-1.46221	-1.46221	11	-0.40854	1	0.40854	0.000000000000000E+000	0.40854	0.0000000E+000	0.000000000000000E+000	0.00360926
2	0	0	1	0	0	0	300.372	-1.00001	-1.00034	-3.5815	-1.46867	-1.46867	11	-0.410334	1	0.410334	0.000000000000000E+000	0.410334	0.0000000E+000	0.000000000000000E+000	0.00358274
2	0	0	1	0	0	0	302.172	-1.00001	-1.00053	-3.44824	-1.47498	-1.47498	11	-0.412086	1	0.412086	0.000000000000000E+000	0.412086	0.0000000E+000	0.000000000000000E+000	0.00345009
2	0	0	1	0	0	0	303.972	-1.00001	-1.00048	-3.4031	-1.48112	-1.48112	11	-0.413794	1	0.413794	0.000000000000000E+000	0.413794	0.0000000E+000	0.000000000000000E+000	0.00340473
2	0	0	1	0	0	0	305.772	-1.00001	-1.00044	-3.3279	-1.48717	-1.48717	11	-0.415474	1	0.415474	0.000000000000000E+000	0.415474	0.0000000E+000	0.000000000000000E+000	0.00332936
2	0	0	1	0	0	0	307.572	-1.00001	-1.00027	-3.35857	-1.49322	-1.49322	11	-0.417155	1	0.417155	0.000000000000000E+000	0.417155	0.0000000E+000	0.000000000000000E+000	0.00335946
2	0	0	1	0	0	0	309.372	-1.00001	-1.00029	-3.4128	-1.49932	-1.49932	11	-0.418849	1	0.418849	0.000000000000000E+000	0.418849	0.0000000E+000	0.000000000000000E+000	0.00341378
2	0	0	1	0	0	0	311.172	-1.00001	-1.00053	-3.3665	-1.50542	-1.50542	11	-0.420542	1	0.420542	0.000000000000000E+000	0.420542	0.0000000E+000	0.000000000000000E+000	0.0033683
2	0	0	1	0	0	0	312.972	-1.00001	-1.00034	-3.41713	-1.51153	-1.51153	11	-0.422241	1	0.422241	0.000000000000000E+000	0.422241	0.0000000E+000	0.000000000000000E+000	0.0034183
2	0	0	1	0	0	0	314.772	-1.00001	-1.00032	-3.39089	-1.51767	-1.51767	11	-0.423945	1	0.423945	0.000000000000000E+000	0.423945	0.0000000E+000	0.000000000000000E+000	0.00339199
2	0	0	1	0	0	0	316.572	-1.00001	-1.00031	-3.37665	-1.52378	-1.52378	11	-0.425643	1	0.425643	0.000000000000000E+000	0.425643	0.0000000E+000	0.000000000000000E+000	0.00337768
2	0	0	1	0	0	0	318.372	-1.00001	-1.00055	-3.13517	-1.52961	-1.52961	11	-0.427263	1	0.427263	0.000000000000000E+000	0.427263	0.0000000E+000	0.000000000000000E+000	0.00313691
2	0	0	1	0	0	0	320.172	-1.00001	-1.00023	-3.04483	-1.53518	-1.53518	11	-0.42881	1	0.42881	0.000000000000000E+000	0.42881	0.0000000E+000	0.000000000000000E+000	0.00304553
2	0	0	1	0	0	0	321.972	-1.00001	-1.00032	-3.03514	-1.54065	-1.54065	11	-0.430329	1	0.430329	0.000000000000000E+000	0.430329	0.0000000E+000	0.000000000000000E+000	0.00303613
2	0	0	1	0	0	0	323.772	-1.00001	-1.00042	-3.03291	-1.54611	-1.54611	11	-0.431845	1	0.431845	0.000000000000000E+000	0.431845	0.0000000E+000	0.000000000000000E+000	0.00303418
2	0	0	1	0	0	0	325.572	-1.00001	-1.0004	-3.00371	-1.55152	-1.55152	11	-0.433348	1	0.433348	0.000000000000000E+000	0.433348	0.0000000E+000	0.000000000000000E+000	0.00300491
2	0	0	1	0	0	0	327.372	-1.00001	-1.00052	-3.0096	-1.55691	-1.55691	11	-0.434846	1	0.434846	0.000000000000000E+000	0.434846	0.0000000E+000	0.000000000000000E+000	0.00301115
2	0	0	1	0	0	0	329.172	-1.00001	-1.0005	-3.01155	-1.56231	-1.56231	11	-0.436347	1	0.436347	0.000000000000000E+000	0.436347	0.0000000E+000	0.000000000000000E+000	0.00301304
2	0	0	1	0	0	0	330.972	-1.00001	-1.00042	-2.981	-1.56774	-1.56774	11	-0.437855	1	0.437855	0.000000000000000E+000	0.437855	0.0000000E+000	0.000000000000000E+000	0.00298225
2	0	0	1	0	0	0	332.772	-1.00001	-1.00034	-2.81062	-1.57298	-1.57298	11	-0.439311	1	0.439311	0.000000000000000E+000	0.439311	0.0000000E+000	0.000000000000000E+000	0.00281158
2	0	0	1	0	0	0	334.572	-1.00001	-1.00048	-2.72827	-1.57796	-1.57796	11	-0.440693	1	0.440693	0.000000000000000E+000	0.440693	0.0000000E+000	0.000000000000000E+000	0.00272957
2	0	0	1	0	0	0	336.372	-1.00001	-1.00042	-2.66735	-1.58282	-1.58282	11	-0.442044	1	0.442044	0.000000000000000E+000	0.442044	0.0000000E+000	0.000000000000000E+000	0.00266847
2	0	0	1	0	0	0	338.172	-1.00001	-1.00017	-2.55603	-1.58753	-1.58753	11	-0.443352	1	0.443352	0.000000000000000E+000	0.443352	0.0000000E+000	0.000000000000000E+000	0.00255647
2	0	0	1	0	0	0	339.972	-1.00001	-1.00031	-2.55703	-1.59214	-1.59214	11	-0.444633	1	0.444633	0.000000000000000E+000	0.444633	0.0000000E+000	0.000000000000000E+000	0.00255781
2	0	0	1	0	0	0	341.772	-1.00001	-1.00029	-2.54508	-1.59675	-1.59675	11	-0.445914	1	0.445914	0.000000000000000E+000	0.445914	0.0000000E+000	0.000000000000000E+000	0.00254581
2	0	0	1	0	0	0	343.572	-1.00001	-1.00027	-2.59072	-1.60141	-1.60141	11	-0.447206	1	0.447206	0.000000000000000E+000	0.447206	0.0000000E+000	0.000000000000000E+000	0.00259141
2	0	0	1	0	0	0	345.372	-1.00001	-1.00048	-2.62056	-1.60613	-1.60613	11	-0.448518	1	0.448518	0.000000000000000E+000	0.448518	0.0000000E+000	0.000000000000000E+000	0.00262181
2	0	0	1	0	0	0	347.172	-1.00001	-1.00021	-2.60381	-1.61083	-1.61083	11	-0.449824	1	0.449824	0.000000000000000E+000	0.449824	0.0000000E+000	0.000000000000000E+000	0.00260436
2	0	0	1	0	0	0	348.972	-1.00001	-1.00038	-2.59249	-1.61552	-1.61552	11	-0.451127	1	0.451127	0.000000000000000E+000	0.451127	0.0000000E+000	0.000000000000000E+000	0.00259348
2	0	0	1	0	0	0	350.772	-1.00001	-1.00034	-2.55297	-1.62015	-1.62015	11	-0.452413	1	0.452413	0.000000000000000E+000	0.452413	0.0000000E+000	0.000000000000000E+000	0.00255385
2	0	0	1	0	0	0	352.572	-1.00001	-1.00023	-2.52182	-1.62469	-1.62469	11	-0.453675	1	0.453675	0.000000000000000E+000	0.453675	0.0000000E+000	0.000000000000000E+000	0.0025224
2	0	0	1	0	0	0	354.372	-1.00001	-1.00027	-2.57561	-1.6293	-1.6293	11	-0.454955	1	0.454955	0.000000000000000E+000	0.454955	0.0000000E+000	0.000000000000000E+000	0.0025763
2	0	0	1	0	0	0	356.172	-1.00001	-1.0005	-2.55658	-1.63392	-1.63392	11	-0.456237	1	0.456237	0.000000000000000E+000	0.456237	0.0000000E+000	0.000000000000000E+000	0.00255784
2	0	0	1	0	0	0	357.972	-1.00001	-1.0005	-2.61777	-1.63856	-1.63856	11	-0.457526	1	0.457526	0.000000000000000E+000	0.457526	0.0000000E+000	0.000000000000000E+000	0.00261907
2	0	0	1	0	0	0	359.772	-1.00001	-1.00036	-2.58292	-1.6432	-1.6432	11	-0.458815	1	0.458815	0.000000000000000E+000	0.458815	0.0000000E+000	0.000000000000000E+000	0.00258386
2	0	0	1	0	0	0	361.572	-1.00001	-1.0005	-2.58115	-1.64781	-1.64781	11	-0.460096	1	0.460096	0.000000000000000E+000	0.460096	0.0000000E+000	0.000000000000000E+000	0.00258243
2	0	0	1	0	0	0	363.372	-1.00001	-1.00036	-2.6389	-1.6525	-1.6525	11	-0.461399	1	0.461399	0.000000000000000E+000	0.461399	0.0000000E+000	0.000000000000000E+000	0.00263986
2	0	0	1	0	0	0	365.172	-1.00001	-1.00052	-2.65953	-1.65729	-1.65729	11	-0.46273	1	0.46273	0.000000000000000E+000	0.46273	0.0000000E+000	0.000000000000000E+000	0.0026609
2	0	0	1	0	0	0	366.972	-1.00001	-1.00027	-2.6887	-1.66211	-1.66211	11	-0.464068	1	0.464068	0.000000000000000E+000	0.464068	0.0000000E+000	0.000000000000000E+000	0.00268942
2	0	0	1	0	0	0	368.772	-1.00001	-1.00042	-2.66693	-1.66693	-1.66693	11	-0.465407	1	0.465407	0.000000000000000E+000	0.465407	0.0000000E+000	0.000000000000000E+000	0.00266805
2	0	0	1	0	0	0	370.572	-1.00001	-1.00052	-2.68858	-1.67175	-1.67175	11	-0.466744	1	0.466744	0.000000000000000E+000	0.466744	0.0000000E+000	0.000000000000000E+000	0.00268997
2	0	0	1	0	0	0	372.372	-1.00001	-1.00025	-2.68408	-1.67657	-1.67657	11	-0.468085	1	0.468085	0.000000000000000E+000	0.468085	0.0000000E+000	0.000000000000000E+000	0.00268474
2	0	0	1	0	0	0	374.172	-1.00001	-1.00044	-2.66442	-1.68138	-1.68138	11	-0.469421	1	0.469421	0.000000000000000E+000	0.469421	0.0000000E+000	0.000000000000000E+000	0.00266559
2	0	0	1	0	0	0	375.972	-1.00001	-1.00031	-2.67051	-1.68618	-1.68618	11	-0.470753	1	0.470753	0.000000000000000E+000	0.470753	0.0000000E+000	0.000000000000000E+000	0.00267133
2	0	0	1	0	0	0	377.772	-1.00001	-1.00034	-2.79803	-1.69111	-1.69111	11	-0.472122	1	0.472122	0.000000000000000E+000	0.472122	0.0000000E+000	0.000000000000000E+000	0.00279899
2	0	0	1	0	0	0	379.572	-1.00001	-1.00029	-2.82694	-1.69617	-1.69617	11	-0.473529	1	0.473529	0.000000000000000E+000	0.473529	0.0000000E+000	0.000000000000000E+000	0.00282775
2	0	0	1	0	0	0	381.372	-1.00001	-1.00038	-2.8601	-1.70128	-1.70128	11	-0.474949	1	0.474949	0.000000000000000E+000	0.474949	0.0000000E+000	0.000000000000000E+000	0.0028612
2	0	0	1	0	0	0	383.172	-1.00001	-1.00046	-2.87442	-1.70644	-1.70644	11	-0.476382	1	0.476382	0.000000000000000E+000	0.476382	0.0000000E+000	0.000000000000000E+000	0.00287574
2	0	0	1	0	0	0	384.972	-1.00001	-1.00044	-2.847	-1.71159	-1.71159	11	-0.477811	1	0.477811	0.000000000000000E+000	0.477811	0.0000000E+000	0.000000000000000E+000	0.00284825
2	0	0	1	0	0	0	386.772	-1.00001	-1.00036	-2.83618	-1.7167	-1.7167	11	-0.479232	1	0.479232	0.000000000000000E+000	0.479232	0.0000000E+000	0.000000000000000E+000	0.00283721
2	0	0	1	0	0	0	388.572	-1.00001	-1.0005	-2.86254	-1.72182	-1.72182	11	-0.480655	1	0.480655	0.000000000000000E+000	0.480655	0.0000000E+000	0.000000000000000E+000	0.00286396
2	0	0	1	0	0	0	390.372	-1.00001	-1.00027	-3.05561	-1.72711	-1.72711	11	-0.482123	1	0.482123	0.000000000000000E+000	0.482123	0.0000000E+000	0.000000000000000E+000	0.00305643
2	0	0	1	0	0	0	392.172	-1.00001	-1.00032	-3.12475	-1.73267	-1.73267	11	-0.483669	1	0.483669	0.000000000000000E+000	0.483669	0.0000000E+000	0.000000000000000E+000	0.00312577
2	0	0	1	0	0	0	393.972	-1.00001	-1.00053	-3.14468	-1.7383	-1.7383	11	-0.485232	1	0.485232	0.000000000000000E+000	0.485232	0.0000000E+000	0.000000000000000E+000	0.00314636
2	0	0	1	0	0	0	395.772	-1.00001	-1.00034	-3.15656	-1.74394	-1.74394	11	-0.4868	1	0.4868	0.000000000000000E+000	0.4868	0.0000000E+000	0.000000000000000E+000	0.00315764
2	0	0	1	0	0	0	397.572	-1.00001	-1.00048	-3.1775	-1.74963	-1.74963	11	-0.48838	1	0.48838	0.000000000000000E+000	0.48838	0.0000000E+000	0.000000000000000E+000	0.00317901
2	0	0	1	0	0	0	399.372	-1.00001	-1.00015	-3.16875	-1.75535	-1.75535	11	-0.489968	1	0.489968	0.000000000000000E+000	0.489968	0.0000000E+000	0.000000000000000E+000	0.00316923
2	0	0	1	0	0	0	401.172	-1.00001	-1.00027	-3.14037	-1.76106	-1.76106	11	-0.491555	1	0.491555	0.000000000000000E+000	0.491555	0.0000000E+000	0.000000000000000E+000	0.00314121
2	0	0	1	0	0	0	402.972	-1.00001	-1.0004	-3.16831	-1.76678	-1.76678	11	-0.493143	1	0.493143	0.000000000000000E+000	0.493143	0.0000000E+000	0.000000000000000E+000	0.00316958
2	0	0	1	0	0	0	404.772	-1.00001	-1.00031	-3.14494	-1.77248	-1.77248	11	-0.494727	1	0.494727	0.000000000000000E+000	0.494727	0.0000000E+000	0.000000000000000E+000	0.0031459
2	0	0	1	0	0	0	406.572	-1.00001	-1.00046	-3.14641	-1.77815	-1.77815	11	-0.496302	1	0.496302	0.000000000000000E+000	0.496302	0.0000000E+000	0.000000000000000E+000	0.00314785
2	0	0	1	0	0	0	408.372	-1.00001	-1.00036	-3.29275	-1.78387	-1.78387	11	-0.497889	1	0.497889	0.000000000000000E+000	0.497889	0.0000000E+000	0.000000000000000E+000	0.00329394
2	0	0	1	0	0	0	410.172	-1.00001	-1.00052	-3.58856	-1.79018	-1.79018	11	-0.499642	1	0.499642	0.000000000000000E+000	0.499642	0.0000000E+000	0.000000000000000E+000	0.00359041
2	0	0	1	0	0	0	411.972	-1.00001	-1.00055	-3.69155	-1.7968	-1.7968	11	-0.501482	1	0.501482	0.000000000000000E+000	0.501482	0.0000000E+000	0.000000000000000E+000	0.0036936
2	0	0	1	0	0	0	413.772	-1.00001	-1.00063	-3.68049	-1.80348	-1.80348	11	-0.503337	1	0.503337	0.000000000000000E+000	0.503337	0.0000000E+000	0.000000000000000E+000	0.0036828
2	0	0	1	0	0	0	415.572	-1.00001	-1	-3.70377	-1.81016	-1.81016	11	-0.505192	1	0.505192	0.000000000000000E+000	0.505192	0.0000000E+000	0.000000000000000E+000	0.00370377
2	0	0	1	0	0	0	417.372	-1.00001	-1.0005	-3.72145	-1.81687	-1.81687	11	-0.507056	1	0.507056	0.000000000000000E+000	0.507056	0.0000000E+000	0.000000000000000E+000	0.00372329
2	0	0	1	0	0	0	419.172	-1.00001	-1.0005	-3.71682	-1.82356	-1.82356	11	-0.508916	1	0.508916	0.000000000000000E+000	0.508916	0.0000000E+000	0.000000000000000E+000	0.00371866
2	0	0	1	0	0	0	420.972	-1.00001	-1.00042	-3.7092	-1.83023	-1.83023	11	-0.510768	1	0.510768	0.000000000000000E+000	0.510768	0.0000000E+000	0.000000000000000E+000	0.00371076
2	0	0	1	0	0	0	422.772	-1.00001	-1.00044	-3.69867	-1.83686	-1.83686	11	-0.512611	1	0.512611	0.000000000000000E+000	0.512611	0.0000000E+000	0.000000000000000E+000	0.00370029
2	0	0	1	0	0	0	424.572	-1.00001	-1.00038	-3.68389	-1.84348	-1.84348	11	-0.514449	1	0.514449	0.000000000000000E+000	0.514449	0.0000000E+000	0.000000000000000E+000	0.00368529
2	0	0	1	0	0	0	426.372	-1.00001	-1.00038	-3.67299	-1.85007	-1.85007	11	-0.51628	1	0.51628	0.000000000000000E+000	0.51628	0.0000000E+000	0.000000000000000E+000	0.00367439
2	0	0	1	0	0	0	428.172	-1.00001	-1.00029	-3.63011	-1.85664	-1.85664	11	-0.518103	1	0.518103	0.000000000000000E+000	0.518103	0.0000000E+000	0.000000000000000E+000	0.00363115
2	0	0	1	0	0	0	429.972	-1.00001	-1.00048	-3.63985	-1.86315	-1.86315	11	-0.519911	1	0.519911	0.000000000000000E+000	0.519911	0.0000000E+000	0.000000000000000E+000	0.00364159
2	0	0	1	0	0	0	431.772	-1.00001	-1.00101	-4.71814	-1.871	-1.871	11	-0.522094	1	0.522094	0.000000000000000E+000	0.522094	0.0000000E+000	0.000000000000000E+000	0.00472291
2	0	0	1	0	0	0	433.572	-1.00001	-1.00025	-4.72096	-1.8795	-1.8795	11	-0.524455	1	0.524455	0.000000000000000E+000	0.524455	0.0000000E+000	0.000000000000000E+000	0.00472214
2	0	0	1	0	0	0	435.372	-1.00001	-1.00019	-4.75017	-1.888	-1.888	11	-0.526816	1	0.526816	0.000000000000000E+000	0.526816	0.0000000E+000	0.000000000000000E+000	0.00475108
2	0	0	1	0	0	0	437.172	-1.00001	-0.999924	-4.76764	-1.89656	-1.89656	11	-0.529193	1	0.529193	0.000000000000000E+000	0.529193	0.0000000E+000	0.000000000000000E+000	0.00476728
2	0	0	1	0	0	0	438.972	-1.00001	-0.999694	-4.76803	-1.90513	-1.90513	11	-0.531574	1	0.531574	0.000000000000000E+000	0.531574	0.0000000E+000	0.000000000000000E+000	0.00476658
2	0	0	1	0	0	0	440.772	-1.00001	-0.999828	-4.7667	-1.91372	-1.91372	11	-0.53396	1	0.53396	0.000000000000000E+000	0.53396	0.0000000E+000	0.000000000000000E+000	0.00476588
2	0	0	1	0	0	0	442.572	-1.00001	-1.00015	-4.75189	-1.92229	-1.92229	11	-0.536339	1	0.536339	0.000000000000000E+000	0.536339	0.0000000E+000	0.000000000000000E+000	0.00475262
2	0	0	1	0	0	0	444.372	-1.00001	-1.00034	-4.72788	-1.93081	-1.93081	11	-0.538707	1	0.538707	0.000000000000000E+000	0.538707	0.0000000E+000	0.000000000000000E+000	0.00472951
2	0	0	1	0	0	0	446.172	-1.00001	-1.00029	-4.89821	-1.93943	-1.93943	11	-0.5411	1	0.5411	0.000000000000000E+000	0.5411	0.0000000E+000	0.000000000000000E+000	0.00489961
2	0	0	1	0	0	0	447.972	-1.00001	-1.00073	-4.89154	-1.94826	-1.94826	11	-0.543553	1	0.543553	0.000000000000000E+000	0.543553	0.0000000E+000	0.000000000000000E+000	0.00489509
2	0	0	1	0	0	0	449.772	-1.00001	-1.00004	-4.90391	-1.95706	-1.95706	11	-0.545999	1	0.545999	0.000000000000000E+000	0.545999	0.0000000E+000	0.000000000000000E+000	0.00490409
2	0	0	1	0	0	0	451.572	-1.00001	-1.00029	-4.88973	-1.96588	-1.96588	11	-0.548449	1	0.548449	0.000000000000000E+000	0.548449	0.0000000E+000	0.000000000000000E+000	0.00489113
2	0	0	1	0	0	0	453.372	-1.00001	-1.00032	-4.89192	-1.97467	-1.97467	11	-0.550891	1	0.550891	0.000000000000000E+000	0.550891	0.0000000E+000	0.000000000000000E+000	0.00489351
2	0	0	1	0	0	0	455.172	-1.00001	-1.00034	-4.90546	-1.98348	-1.98348	11	-0.553338	1	0.553338	0.000000000000000E+000	0.553338	0.0000000E+000	0.000000000000000E+000	0.00490714
2	0	0	1	0	0	0	456.972	-1.00001	-1.00015	-4.89248	-1.9923	-1.9923	11	-0.555787	1	0.555787	0.000000000000000E+000	0.555787	0.0000000E+000	0.000000000000000E+000	0.00489323
2	0	0	1	0	0	0	458.772	-1.00001	-1.00053	-4.88542	-2.0011	-2.0011	11	-0.558233	1	0.558233	0.000000000000000E+000	0.558233	0.0000000E+000	0.000000000000000E+000	0.00488803
2	0	0	1	0	0	0	460.572	-1.00001	-1.00067	-4.84766	-2.00986	-2.00986	11	-0.560666	1	0.560666	0.000000000000000E+000	0.560666	0.0000000E+000	0.000000000000000E+000	0.0048509
2	0	0	1	0	0	0	462.372	-1.00001	-1.00025	-5.00297	-2.01862	-2.01862	11	-0.563099	1	0.563099	0.000000000000000E+000	0.563099	0.0000000E+000	0.000000000000000E+000	0.00500422
2	0	0	1	0	0	0	464.172	-1.00001	-1.00038	-5.23962	-2.02797	-2.02797	11	-0.565695	1	0.565695	0.000000000000000E+000	0.565695	0.0000000E+000	0.000000000000000E+000	0.00524162
2	0	0	1	0	0	0	465.972	-1.00001	-1.00046	-5.28081	-2.03744	-2.03744	11	-0.568326	1	0.568326	0.000000000000000E+000	0.568326	0.0000000E+000	0.000000000000000E+000	0.00528322
2	0	0	1	0	0	0	467.772	-1.00001	-1.00048	-5.29176	-2.04695	-2.04695	11	-0.570967	1	0.570967	0.000000000000000E+000	0.570967	0.0000000E+000	0.000000000000000E+000	0.00529428
2	0	0	1	0	0	0	469.572	-1.00001	-1.00029	-5.28144	-2.05645	-2.05645	11	-0.573607	1	0.573607	0.000000000000000E+000	0.573607	0.0000000E+000	0.000000000000000E+000	0.00528295
2	0	0	1	0	0	0	471.372	-1.00001	-1.0005	-5.25697	-2.06593	-2.06593	11	-0.576242	1	0.576242	0.000000000000000E+000	0.576242	0.0000000E+000	0.000000000000000E+000	0.00525957
2	0	0	1	0	0	0	473.172	-1.00001	-1.00118	-5.20269	-2.07534	-2.07534	11	-0.578854	1	0.578854	0.000000000000000E+000	0.578854	0.0000000E+000	0.000000000000000E+000	0.00520885
2	0	0	1	0	0	0	474.972	-1.00001	-1.00084	-5.19639	-2.08469	-2.08469	11	-0.581453	1	0.581453	0.000000000000000E+000	0.581453	0.0000000E+000	0.000000000000000E+000	0.00520075
2	0	0	1	0	0	0	476.772	-1.00001	-1.00046	-5.17778	-2.09404	-2.09404	11	-0.584048	1	0.584048	0.000000000000000E+000	0.584048	0.0000000E+000	0.000000000000000E+000	0.00518015
2	0	0	1	0	0	0	478.572	-1.00001	-1.00029	-5.16963	-2.10337	-2.10337	11	-0.586639	1	0.586639	0.000000000000000E+000	0.586639	0.0000000E+000	0.000000000000000E+000	0.00517111
2	0	0	1	0	0	0	480.372	-1.00001	-1.00038	-5.18903	-2.11268	-2.11268	11	-0.589228	1	0.589228	0.000000000000000E+000	0.589228	0.0000000E+000	0.000000000000000E+000	0.00519101
2	0	0	1	0	0	0	482.172	-1.00001	-1.00094	-5.18395	-2.12202	-2.12202	11	-0.591821	1	0.591821	0.000000000000000E+000	0.591821	0.0000000E+000	0.000000000000000E+000	0.0051888
2	0	0	1	0	0	0	483.972	-1.00001	-1.00036	-5.16567	-2.13133	-2.13133	11	-0.594406	1	0.594406	0.000000000000000E+000	0.594406	0.0000000E+000	0.000000000000000E+000	0.00516754
2	0	0	1	0	0	0	485.772	-1.00001	-1.00029	-5.18701	-2.14065	-2.14065	11	-0.596995	1	0.596995	0.000000000000000E+000	0.596995	0.0000000E+000	0.000000000000000E+000	0.0051885
2	0	0	1	0	0	0	487.572	-1.00001	-1.00038	-5.68587	-2.15074	-2.15074	11	-0.599799	1	0.599799	0.000000000000000E+000	0.599799	0.0000000E+000	0.000000000000000E+000	0.00568804
2	0	0	1	0	0	0	489.372	-1.00001	-1.00029	-5.67912	-2.16097	-2.16097	11	-0.602641	1	0.602641	0.000000000000000E+000	0.602641	0.0000000E+000	0.000000000000000E+000	0.00568075
2	0	0	1	0	0	0	491.172	-1.00001	-1.00029	-5.68596	-2.1712	-2.1712	11	-0.605482	1	0.605482	0.000000000000000E+000	0.605482	0.0000000E+000	0.000000000000000E+000	0.00568759
2	0	0	1	0	0	0	492.972	-1.00001	-1.00025	-5.67061	-2.18142	-2.18142	11	-0.608321	1	0.608321	0.000000000000000E+000	0.608321	0.0000000E+000	0.000000000000000E+000	0.00567202
2	0	0	1	0	0	0	494.772	-1.00001	-1.00032	-5.66752	-2.19162	-2.19162	11	-0.611153	1	0.611153	0.000000000000000E+000	0.611153	0.0000000E+000	0.000000000000000E+000	0.00566936
2	0	0	1	0	0	0	496.572	-1.00001	-1.00038	-5.66422	-2.20181	-2.20181	11	-0.613985	1	0.613985	0.000000000000000E+000	0.613985	0.0000000E+000	0.000000000000000E+000	0.00566638
2	0	0	1	0	0	0	498.372	-1.00001	-1.00032	-5.65429	-2.21199	-2.21199	11	-0.616813	1	0.616813	0.000000000000000E+000	0.616813	0.0000000E+000	0.000000000000000E+000	0.00565612
2	0	0	1	0	0	0	500.172	-1.00001	-1.00053	-5.64997	-2.22216	-2.22216	11	-0.619637	1	0.619637	0.000000000000000E+000	0.619637	0.0000000E+000	0.000000000000000E+000	0.00565299
2	0	0	1	0	0	0	501.972	-1.00001	-1.00036	-5.62922	-2.23231	-2.23231	11	-0.622456	1	0.622456	0.000000000000000E+000	0.622456	0.0000000E+000	0.000000000000000E+000	0.00563126
2	0	0	1	0	0	0	503.772	-1.00001	-1.00074	-5.90004	-2.24251	-2.24251	11	-0.625289	1	0.625289	0.000000000000000E+000	0.625289	0.0000000E+000	0.000000000000000E+000	0.00590443
2	0	0	1	0	0	0	505.572	-1.00001	-1.00044	-5.97285	-2.25324	-2.25324	11	-0.628271	1	0.628271	0.000000000000000E+000	0.628271	0.0000000E+000	0.000000000000000E+000	0.00597547
2	0	0	1	0	0	0	507.372	-1.00001	-1.00038	-5.95774	-2.26397	-2.26397	11	-0.631252	1	0.631252	0.000000000000000E+000	0.631252	0.0000000E+000	0.000000000000000E+000	0.00596001
2	0	0	1	0	0	0	509.172	-1.00001	-1.00011	-5.9472	-2.27469	-2.27469	11	-0.634229	1	0.634229	0.000000000000000E+000	0.634229	0.0000000E+000	0.000000000000000E+000	0.00594788
2	0	0	1	0	0	0	510.972	-1.00001	-1.00021	-5.93843	-2.28539	-2.28539	11	-0.6372	1	0.6372	0.000000000000000E+000	0.6372	0.0000000E+000	0.000000000000000E+000	0.00593967
2	0	0	1	0	0	0	512.772	-1.00001	-1.0005	-5.92508	-2.29606	-2.29606	11	-0.640165	1	0.640165	0.000000000000000E+000	0.640165	0.0000000E+000	0.000000000000000E+000	0.00592802
2	0	0	1	0	0	0	514.572	-1.00001	-1.00027	-5.9198	-2.30672	-2.30672	11	-0.643126	1	0.643126	0.000000000000000E+000	0.643126	0.0000000E+000	0.000000000000000E+000	0.00592139
2	0	0	1	0	0	0	516.372	-1.00001	-1.0001	-5.91272	-2.31737	-2.31737	11	-0.646084	1	0.646084	0.000000000000000E+000	0.646084	0.0000000E+000	0.000000000000000E+000	0.00591328
2	0	0	1	0	0	0	518.172	-1.00001	-1.00055	-5.89259	-2.32799	-2.32799	11	-0.649035	1	0.649035	0.000000000000000E+000	0.649035	0.0000000E+000	0.000000000000000E+000	0.00589585
2	0	0	1	0	0	0	519.972	-1.00001	-1.00004	-5.89165	-2.3386	-2.3386	11	-0.651981	1	0.651981	0.000000000000000E+000	0.651981	0.0000000E+000	0.000000000000000E+000	0.00589188
2	0	0	1	0	0	0	521.772	-1.00001	-1.00011	-5.87974	-2.34919	-2.34919	11	-0.654924	1	0.654924	0.000000000000000E+000	0.654924	0.0000000E+000	0.000000000000000E+000	0.00588041
2	0	0	1	0	0	0	522.283	-1.00001	-0.999675	-5.83863	-2.35219	-2.35219	11	-0.655758	1	0.655758	0.000000000000000E+000	0.655758	27659.5	0.000000000000000E+000	0.00583674