File: ZnPVAGAECH_09 03-20-22-ZnGAPVA ECH-1600 rpm at -0_9V vs RHE RDE3_03_CA_C05(1).mpt
EC-Lab ASCII FILE
Nb header lines : 68

Chronoamperometry / Chronocoulometry

Run on channel : 5 (SN 6729)
User :
CE vs. WE compliance from -10 V to 10 V
Electrode connection : standard
Potential control : Ewe
Ewe ctrl range : min = -2.50 V, max = 2.50 V
Safety Limits :
	Do not start on E overload
Acquisition started on : 03/20/2022 13:48:04.552
Technique started on : 03/20/2022 13:54:04.181
Loaded Setting File :  NONE
Saved on :
	File : 03-20-22-ZnGAPVA  ECH-1600 rpm at -0_8V vs RHE RDE3_03_CA_C05.mpr
	Directory : \\research-scb.egr.msu.edu\research-scb\Mindy\Koutecky Levich\Zn GA PVA 001\ECH\03-20-22\
	Host : 35.9.136.210
Device : VSP (SN 0012)
Address : 35.9.137.65
EC-Lab for windows v11.43 (software)
Internet server v11.40 (firmware)
Command interpretor v11.40 (firmware)
Electrode material :
Initial state :
Electrolyte :
Comments :
Electrode surface area : 0.196 cm²
Characteristic mass : 0.001 g
Equivalent Weight : 0.000 g/eq.
Density : 0.000 g/cm3
Volume (V) : 0.001 cm³
Cycle Definition : Charge/Discharge alternance
Ei (V)              -0.900
vs.                 Ref
ti (h:m:s)          0:30:0.0000
Imax                pass
unit Imax           mA
Imin                pass
unit Imin           mA
dQM                 0.000
unit dQM            mA.h
record              <I>
dI                  5.000
unit dI             µA
dQ                  0.000
unit dQ             mA.h
dt (s)              0.1000
dta (s)             0.1000
E range min (V)     -2.500
E range max (V)     2.500
I Range             Auto
I Range min         Unset
I Range max         Unset
I Range init        Unset
Bandwidth           5
goto Ns'            0
nc cycles           0

Modify on : 03/20/2022 13:53
Ei (V)              -0.600

Modify on : 03/20/2022 13:54
Ei (V)              -0.650

mode	ox/red	error	control changes	Ns changes	counter inc.	Ns	time/s	control/V	Ewe/V	<I>/mA	dQ/C	(Q-Qo)/C	I Range	Q charge/discharge/mA.h	half cycle	Q discharge/mA.h	Q charge/mA.h	Capacity/mA.h	Efficiency/%	cycle number	P/W
2	0	0	0	0	0	0	359.629	-0.599957	-0.600117	-2.02872	-0.000202872	-0.000202872	11	-5.63534e-05	0	5.63534e-05	0.000000000000000E+000	5.63534e-05	0.0000000E+000	0.000000000000000E+000	0.00121747
2	0	0	0	0	0	0	360.929	-0.599957	-0.600308	-2.31769	-0.00315575	-0.00315575	11	-0.000876597	0	0.000876597	0.000000000000000E+000	0.000876597	0.0000000E+000	0.000000000000000E+000	0.00139133
2	0	0	0	0	0	0	362.229	-0.599957	-0.600327	-2.35535	-0.00619944	-0.00619944	11	-0.00172207	0	0.00172207	0.000000000000000E+000	0.00172207	0.0000000E+000	0.000000000000000E+000	0.00141398
2	0	0	0	0	0	0	363.529	-0.599957	-0.600365	-2.37146	-0.0092739	-0.0092739	11	-0.00257608	0	0.00257608	0.000000000000000E+000	0.00257608	0.0000000E+000	0.000000000000000E+000	0.00142374
2	0	0	0	0	0	0	364.829	-0.599957	-0.600346	-2.37799	-0.0123615	-0.0123615	11	-0.00343376	0	0.00343376	0.000000000000000E+000	0.00343376	0.0000000E+000	0.000000000000000E+000	0.00142761
2	0	0	0	0	0	0	366.129	-0.599957	-0.600346	-2.37996	-0.0154548	-0.0154548	11	-0.00429301	0	0.00429301	0.000000000000000E+000	0.00429301	0.0000000E+000	0.000000000000000E+000	0.0014288
2	0	0	0	0	0	0	367.429	-0.599957	-0.600346	-2.3816	-0.0185506	-0.0185506	11	-0.00515293	0	0.00515293	0.000000000000000E+000	0.00515293	0.0000000E+000	0.000000000000000E+000	0.00142978
2	0	0	0	0	0	0	368.729	-0.599957	-0.600346	-2.38234	-0.0216468	-0.0216468	11	-0.006013	0	0.006013	0.000000000000000E+000	0.006013	0.0000000E+000	0.000000000000000E+000	0.00143023
2	0	0	0	0	0	0	370.029	-0.599957	-0.600346	-2.38091	-0.024742	-0.024742	11	-0.00687279	0	0.00687279	0.000000000000000E+000	0.00687279	0.0000000E+000	0.000000000000000E+000	0.00142937
2	0	0	0	0	0	0	371.329	-0.599957	-0.600365	-2.38012	-0.0278365	-0.0278365	11	-0.00773236	0	0.00773236	0.000000000000000E+000	0.00773236	0.0000000E+000	0.000000000000000E+000	0.00142894
2	0	0	0	0	0	0	372.629	-0.599957	-0.600461	-2.37877	-0.0309293	-0.0309293	11	-0.00859148	0	0.00859148	0.000000000000000E+000	0.00859148	0.0000000E+000	0.000000000000000E+000	0.00142836
2	0	0	0	0	0	0	373.929	-0.599957	-0.600422	-2.37672	-0.03402	-0.03402	11	-0.00945001	0	0.00945001	0.000000000000000E+000	0.00945001	0.0000000E+000	0.000000000000000E+000	0.00142703
2	0	0	0	0	0	0	375.229	-0.599957	-0.600365	-2.3736	-0.037108	-0.037108	11	-0.0103078	0	0.0103078	0.000000000000000E+000	0.0103078	0.0000000E+000	0.000000000000000E+000	0.00142503
2	0	0	0	0	0	0	376.529	-0.599957	-0.600346	-2.37034	-0.0401915	-0.0401915	11	-0.0111643	0	0.0111643	0.000000000000000E+000	0.0111643	0.0000000E+000	0.000000000000000E+000	0.00142302
2	0	0	0	0	0	0	377.829	-0.599957	-0.600212	-2.36611	-0.0432704	-0.0432704	11	-0.0120195	0	0.0120195	0.000000000000000E+000	0.0120195	0.0000000E+000	0.000000000000000E+000	0.00142017
2	0	0	0	0	0	0	379.129	-0.599957	-0.600308	-2.36305	-0.0463444	-0.0463444	11	-0.0128735	0	0.0128735	0.000000000000000E+000	0.0128735	0.0000000E+000	0.000000000000000E+000	0.00141856
2	0	0	1	0	0	0	380.429	-0.64998	-0.650422	-2.93387	-0.049808	-0.049808	11	-0.0138355	0	0.0138355	0.000000000000000E+000	0.0138355	0.0000000E+000	0.000000000000000E+000	0.00190826
2	0	0	1	0	0	0	381.729	-0.64998	-0.650308	-2.8882	-0.0535832	-0.0535832	11	-0.0148842	0	0.0148842	0.000000000000000E+000	0.0148842	0.0000000E+000	0.000000000000000E+000	0.00187822
2	0	0	1	0	0	0	383.029	-0.64998	-0.650251	-2.8698	-0.0573242	-0.0573242	11	-0.0159234	0	0.0159234	0.000000000000000E+000	0.0159234	0.0000000E+000	0.000000000000000E+000	0.00186609
2	0	0	1	0	0	0	384.329	-0.64998	-0.650384	-2.85902	-0.0610466	-0.0610466	11	-0.0169574	0	0.0169574	0.000000000000000E+000	0.0169574	0.0000000E+000	0.000000000000000E+000	0.00185946
2	0	0	1	0	0	0	385.629	-0.64998	-0.650403	-2.85112	-0.0647579	-0.0647579	11	-0.0179883	0	0.0179883	0.000000000000000E+000	0.0179883	0.0000000E+000	0.000000000000000E+000	0.00185438
2	0	0	1	0	0	0	386.929	-0.64998	-0.650422	-2.8452	-0.0684595	-0.0684595	11	-0.0190165	0	0.0190165	0.000000000000000E+000	0.0190165	0.0000000E+000	0.000000000000000E+000	0.00185058
2	0	0	1	0	0	0	388.229	-0.64998	-0.650384	-2.8393	-0.0721538	-0.0721538	11	-0.0200427	0	0.0200427	0.000000000000000E+000	0.0200427	0.0000000E+000	0.000000000000000E+000	0.00184664
2	0	0	1	0	0	0	389.529	-0.64998	-0.650499	-2.83354	-0.0758406	-0.0758406	11	-0.0210668	0	0.0210668	0.000000000000000E+000	0.0210668	0.0000000E+000	0.000000000000000E+000	0.00184322
2	0	0	1	0	0	0	390.829	-0.64998	-0.650403	-2.82725	-0.0795197	-0.0795197	11	-0.0220888	0	0.0220888	0.000000000000000E+000	0.0220888	0.0000000E+000	0.000000000000000E+000	0.00183885
2	0	0	1	0	0	0	392.129	-0.64998	-0.650384	-2.82582	-0.0831944	-0.0831944	11	-0.0231096	0	0.0231096	0.000000000000000E+000	0.0231096	0.0000000E+000	0.000000000000000E+000	0.00183787
2	0	0	1	0	0	0	393.429	-0.64998	-0.650422	-2.8223	-0.0868651	-0.0868651	11	-0.0241292	0	0.0241292	0.000000000000000E+000	0.0241292	0.0000000E+000	0.000000000000000E+000	0.00183569
2	0	0	1	0	0	0	394.729	-0.64998	-0.650441	-2.82085	-0.0905339	-0.0905339	11	-0.0251483	0	0.0251483	0.000000000000000E+000	0.0251483	0.0000000E+000	0.000000000000000E+000	0.0018348
2	0	0	1	0	0	0	396.029	-0.64998	-0.650289	-2.82035	-0.0941995	-0.0941995	11	-0.0261665	0	0.0261665	0.000000000000000E+000	0.0261665	0.0000000E+000	0.000000000000000E+000	0.00183404
2	0	0	1	0	0	0	397.329	-0.64998	-0.650403	-2.81476	-0.0978613	-0.0978613	11	-0.0271837	0	0.0271837	0.000000000000000E+000	0.0271837	0.0000000E+000	0.000000000000000E+000	0.00183073
2	0	0	1	0	0	0	398.629	-0.64998	-0.650632	-2.81147	-0.101518	-0.101518	11	-0.0281993	0	0.0281993	0.000000000000000E+000	0.0281993	0.0000000E+000	0.000000000000000E+000	0.00182923
2	0	0	1	0	0	0	399.929	-0.64998	-0.650117	-2.80652	-0.105169	-0.105169	11	-0.0292136	0	0.0292136	0.000000000000000E+000	0.0292136	0.0000000E+000	0.000000000000000E+000	0.00182456
2	0	0	1	0	0	0	401.229	-0.64998	-0.650441	-2.80246	-0.108814	-0.108814	11	-0.0302261	0	0.0302261	0.000000000000000E+000	0.0302261	0.0000000E+000	0.000000000000000E+000	0.00182284
2	0	0	1	0	0	0	402.529	-0.64998	-0.650518	-2.79765	-0.112453	-0.112453	11	-0.0312369	0	0.0312369	0.000000000000000E+000	0.0312369	0.0000000E+000	0.000000000000000E+000	0.00181992
2	0	0	1	0	0	0	403.829	-0.64998	-0.650289	-2.79355	-0.116087	-0.116087	11	-0.0322463	0	0.0322463	0.000000000000000E+000	0.0322463	0.0000000E+000	0.000000000000000E+000	0.00181662
2	0	0	1	0	0	0	405.129	-0.64998	-0.650174	-2.79151	-0.119717	-0.119717	11	-0.0332547	0	0.0332547	0.000000000000000E+000	0.0332547	0.0000000E+000	0.000000000000000E+000	0.00181497
2	0	0	1	0	0	0	406.429	-0.64998	-0.650499	-2.78849	-0.123343	-0.123343	11	-0.034262	0	0.034262	0.000000000000000E+000	0.034262	0.0000000E+000	0.000000000000000E+000	0.00181391
2	0	0	1	0	0	0	407.729	-0.64998	-0.650422	-2.78604	-0.126966	-0.126966	11	-0.0352684	0	0.0352684	0.000000000000000E+000	0.0352684	0.0000000E+000	0.000000000000000E+000	0.0018121
2	0	0	1	0	0	0	409.029	-0.64998	-0.650327	-2.78288	-0.130585	-0.130585	11	-0.0362737	0	0.0362737	0.000000000000000E+000	0.0362737	0.0000000E+000	0.000000000000000E+000	0.00180978
2	0	0	1	0	0	0	410.329	-0.64998	-0.650327	-2.77745	-0.134198	-0.134198	11	-0.0372773	0	0.0372773	0.000000000000000E+000	0.0372773	0.0000000E+000	0.000000000000000E+000	0.00180625
2	0	0	1	0	0	0	411.629	-0.64998	-0.650346	-2.77255	-0.137806	-0.137806	11	-0.0382795	0	0.0382795	0.000000000000000E+000	0.0382795	0.0000000E+000	0.000000000000000E+000	0.00180312
2	0	0	1	0	0	0	412.929	-0.64998	-0.650441	-2.76988	-0.141408	-0.141408	11	-0.03928	0	0.03928	0.000000000000000E+000	0.03928	0.0000000E+000	0.000000000000000E+000	0.00180165
2	0	0	1	0	0	0	414.229	-0.64998	-0.650499	-2.76352	-0.145004	-0.145004	11	-0.0402789	0	0.0402789	0.000000000000000E+000	0.0402789	0.0000000E+000	0.000000000000000E+000	0.00179767
2	0	0	1	0	0	0	415.529	-0.64998	-0.650346	-2.7633	-0.148597	-0.148597	11	-0.041277	0	0.041277	0.000000000000000E+000	0.041277	0.0000000E+000	0.000000000000000E+000	0.0017971
2	0	0	1	0	0	0	416.829	-0.64998	-0.650384	-2.75937	-0.152187	-0.152187	11	-0.0422741	0	0.0422741	0.000000000000000E+000	0.0422741	0.0000000E+000	0.000000000000000E+000	0.00179465
2	0	0	1	0	0	0	418.129	-0.64998	-0.650461	-2.75427	-0.155771	-0.155771	11	-0.0432696	0	0.0432696	0.000000000000000E+000	0.0432696	0.0000000E+000	0.000000000000000E+000	0.00179155
2	0	0	1	0	0	0	419.429	-0.64998	-0.650403	-2.75204	-0.159351	-0.159351	11	-0.0442641	0	0.0442641	0.000000000000000E+000	0.0442641	0.0000000E+000	0.000000000000000E+000	0.00178994
2	0	0	1	0	0	0	420.729	-0.64998	-0.650384	-2.7507	-0.162927	-0.162927	11	-0.0452575	0	0.0452575	0.000000000000000E+000	0.0452575	0.0000000E+000	0.000000000000000E+000	0.00178901
2	0	0	1	0	0	0	422.029	-0.64998	-0.65048	-2.74646	-0.166499	-0.166499	11	-0.0462498	0	0.0462498	0.000000000000000E+000	0.0462498	0.0000000E+000	0.000000000000000E+000	0.00178651
2	0	0	1	0	0	0	423.329	-0.64998	-0.650346	-2.713	-0.170063	-0.170063	11	-0.0472397	0	0.0472397	0.000000000000000E+000	0.0472397	0.0000000E+000	0.000000000000000E+000	0.00176439
2	0	0	1	0	0	0	424.629	-0.64998	-0.650346	-2.52469	-0.17342	-0.17342	11	-0.0481722	0	0.0481722	0.000000000000000E+000	0.0481722	0.0000000E+000	0.000000000000000E+000	0.00164192
2	0	0	1	0	0	0	425.929	-0.64998	-0.650403	-2.48752	-0.176675	-0.176675	11	-0.0490763	0	0.0490763	0.000000000000000E+000	0.0490763	0.0000000E+000	0.000000000000000E+000	0.00161789
2	0	0	1	0	0	0	427.229	-0.64998	-0.650499	-2.46014	-0.179888	-0.179888	11	-0.0499689	0	0.0499689	0.000000000000000E+000	0.0499689	0.0000000E+000	0.000000000000000E+000	0.00160031
2	0	0	1	0	0	0	428.529	-0.64998	-0.650365	-2.44541	-0.183075	-0.183075	11	-0.0508542	0	0.0508542	0.000000000000000E+000	0.0508542	0.0000000E+000	0.000000000000000E+000	0.00159041
2	0	0	1	0	0	0	429.829	-0.64998	-0.650384	-2.43787	-0.186248	-0.186248	11	-0.0517357	0	0.0517357	0.000000000000000E+000	0.0517357	0.0000000E+000	0.000000000000000E+000	0.00158555
2	0	0	1	0	0	0	431.129	-0.64998	-0.650346	-2.42459	-0.189408	-0.189408	11	-0.0526134	0	0.0526134	0.000000000000000E+000	0.0526134	0.0000000E+000	0.000000000000000E+000	0.00157682
2	0	0	1	0	0	0	432.429	-0.64998	-0.650422	-2.42155	-0.192557	-0.192557	11	-0.0534882	0	0.0534882	0.000000000000000E+000	0.0534882	0.0000000E+000	0.000000000000000E+000	0.00157503
2	0	0	1	0	0	0	433.729	-0.64998	-0.650441	-2.41271	-0.195698	-0.195698	11	-0.0543607	0	0.0543607	0.000000000000000E+000	0.0543607	0.0000000E+000	0.000000000000000E+000	0.00156933
2	0	0	1	0	0	0	435.029	-0.64998	-0.650365	-2.40807	-0.198831	-0.198831	11	-0.0552308	0	0.0552308	0.000000000000000E+000	0.0552308	0.0000000E+000	0.000000000000000E+000	0.00156613
2	0	0	1	0	0	0	436.329	-0.64998	-0.650499	-2.40356	-0.201956	-0.201956	11	-0.056099	0	0.056099	0.000000000000000E+000	0.056099	0.0000000E+000	0.000000000000000E+000	0.00156351
2	0	0	1	0	0	0	437.629	-0.64998	-0.650212	-2.39941	-0.205078	-0.205078	11	-0.0569661	0	0.0569661	0.000000000000000E+000	0.0569661	0.0000000E+000	0.000000000000000E+000	0.00156012
2	0	0	1	0	0	0	438.929	-0.64998	-0.650461	-2.39458	-0.208193	-0.208193	11	-0.0578314	0	0.0578314	0.000000000000000E+000	0.0578314	0.0000000E+000	0.000000000000000E+000	0.00155758
2	0	0	1	0	0	0	440.229	-0.64998	-0.65048	-2.39034	-0.211303	-0.211303	11	-0.0586953	0	0.0586953	0.000000000000000E+000	0.0586953	0.0000000E+000	0.000000000000000E+000	0.00155487
2	0	0	1	0	0	0	441.529	-0.64998	-0.650384	-2.39087	-0.214411	-0.214411	11	-0.0595586	0	0.0595586	0.000000000000000E+000	0.0595586	0.0000000E+000	0.000000000000000E+000	0.00155498
2	0	0	1	0	0	0	442.829	-0.64998	-0.650403	-2.38495	-0.217514	-0.217514	11	-0.0604206	0	0.0604206	0.000000000000000E+000	0.0604206	0.0000000E+000	0.000000000000000E+000	0.00155118
2	0	0	1	0	0	0	444.129	-0.64998	-0.650575	-2.38164	-0.220613	-0.220613	11	-0.0612814	0	0.0612814	0.000000000000000E+000	0.0612814	0.0000000E+000	0.000000000000000E+000	0.00154944
2	0	0	1	0	0	0	445.429	-0.64998	-0.65027	-2.3767	-0.223706	-0.223706	11	-0.0621407	0	0.0621407	0.000000000000000E+000	0.0621407	0.0000000E+000	0.000000000000000E+000	0.0015455
2	0	0	1	0	0	0	446.729	-0.64998	-0.65048	-2.37421	-0.226795	-0.226795	11	-0.0629986	0	0.0629986	0.000000000000000E+000	0.0629986	0.0000000E+000	0.000000000000000E+000	0.00154438
2	0	0	1	0	0	0	448.029	-0.64998	-0.650231	-2.36931	-0.229879	-0.229879	11	-0.0638554	0	0.0638554	0.000000000000000E+000	0.0638554	0.0000000E+000	0.000000000000000E+000	0.0015406
2	0	0	1	0	0	0	449.329	-0.64998	-0.650499	-2.36855	-0.232959	-0.232959	11	-0.0647107	0	0.0647107	0.000000000000000E+000	0.0647107	0.0000000E+000	0.000000000000000E+000	0.00154074
2	0	0	1	0	0	0	450.629	-0.64998	-0.650346	-2.36709	-0.236036	-0.236036	11	-0.0655656	0	0.0655656	0.000000000000000E+000	0.0655656	0.0000000E+000	0.000000000000000E+000	0.00153943
2	0	0	1	0	0	0	451.929	-0.64998	-0.650461	-2.36222	-0.239109	-0.239109	11	-0.0664193	0	0.0664193	0.000000000000000E+000	0.0664193	0.0000000E+000	0.000000000000000E+000	0.00153653
2	0	0	1	0	0	0	453.229	-0.64998	-0.650403	-2.36359	-0.242181	-0.242181	11	-0.0672724	0	0.0672724	0.000000000000000E+000	0.0672724	0.0000000E+000	0.000000000000000E+000	0.00153729
2	0	0	1	0	0	0	454.529	-0.64998	-0.650556	-2.35554	-0.245248	-0.245248	11	-0.0681245	0	0.0681245	0.000000000000000E+000	0.0681245	0.0000000E+000	0.000000000000000E+000	0.00153241
2	0	0	1	0	0	0	455.829	-0.64998	-0.650461	-2.3556	-0.248309	-0.248309	11	-0.0689748	0	0.0689748	0.000000000000000E+000	0.0689748	0.0000000E+000	0.000000000000000E+000	0.00153223
2	0	0	1	0	0	0	457.129	-0.64998	-0.650461	-2.35238	-0.25137	-0.25137	11	-0.0698249	0	0.0698249	0.000000000000000E+000	0.0698249	0.0000000E+000	0.000000000000000E+000	0.00153013
2	0	0	1	0	0	0	458.429	-0.64998	-0.650327	-2.35008	-0.254426	-0.254426	11	-0.0706739	0	0.0706739	0.000000000000000E+000	0.0706739	0.0000000E+000	0.000000000000000E+000	0.00152832
2	0	0	1	0	0	0	459.729	-0.64998	-0.650403	-2.34663	-0.257478	-0.257478	11	-0.0715217	0	0.0715217	0.000000000000000E+000	0.0715217	0.0000000E+000	0.000000000000000E+000	0.00152626
2	0	0	1	0	0	0	461.029	-0.64998	-0.650365	-2.34362	-0.260526	-0.260526	11	-0.0723684	0	0.0723684	0.000000000000000E+000	0.0723684	0.0000000E+000	0.000000000000000E+000	0.00152421
2	0	0	1	0	0	0	462.329	-0.64998	-0.650365	-2.34361	-0.263572	-0.263572	11	-0.0732145	0	0.0732145	0.000000000000000E+000	0.0732145	0.0000000E+000	0.000000000000000E+000	0.0015242
2	0	0	1	0	0	0	463.629	-0.64998	-0.650346	-2.33926	-0.266616	-0.266616	11	-0.0740601	0	0.0740601	0.000000000000000E+000	0.0740601	0.0000000E+000	0.000000000000000E+000	0.00152133
2	0	0	1	0	0	0	464.929	-0.64998	-0.650365	-2.34088	-0.269659	-0.269659	11	-0.0749052	0	0.0749052	0.000000000000000E+000	0.0749052	0.0000000E+000	0.000000000000000E+000	0.00152243
2	0	0	1	0	0	0	466.229	-0.64998	-0.650403	-2.30305	-0.272686	-0.272686	11	-0.075746	0	0.075746	0.000000000000000E+000	0.075746	0.0000000E+000	0.000000000000000E+000	0.00149791
2	0	0	1	0	0	0	467.529	-0.64998	-0.650537	-2.21962	-0.275612	-0.275612	11	-0.0765589	0	0.0765589	0.000000000000000E+000	0.0765589	0.0000000E+000	0.000000000000000E+000	0.00144394
2	0	0	1	0	0	0	468.829	-0.64998	-0.650422	-2.18933	-0.278474	-0.278474	11	-0.0773539	0	0.0773539	0.000000000000000E+000	0.0773539	0.0000000E+000	0.000000000000000E+000	0.00142399
2	0	0	1	0	0	0	470.129	-0.64998	-0.650422	-2.17246	-0.281306	-0.281306	11	-0.0781407	0	0.0781407	0.000000000000000E+000	0.0781407	0.0000000E+000	0.000000000000000E+000	0.00141302
2	0	0	1	0	0	0	471.429	-0.64998	-0.650461	-2.16068	-0.284123	-0.284123	11	-0.0789231	0	0.0789231	0.000000000000000E+000	0.0789231	0.0000000E+000	0.000000000000000E+000	0.00140544
2	0	0	1	0	0	0	472.729	-0.64998	-0.650461	-2.15027	-0.286924	-0.286924	11	-0.0797011	0	0.0797011	0.000000000000000E+000	0.0797011	0.0000000E+000	0.000000000000000E+000	0.00139867
2	0	0	1	0	0	0	474.029	-0.64998	-0.65048	-2.14493	-0.289717	-0.289717	11	-0.080477	0	0.080477	0.000000000000000E+000	0.080477	0.0000000E+000	0.000000000000000E+000	0.00139523
2	0	0	1	0	0	0	475.329	-0.64998	-0.650289	-2.14067	-0.292503	-0.292503	11	-0.0812509	0	0.0812509	0.000000000000000E+000	0.0812509	0.0000000E+000	0.000000000000000E+000	0.00139206
2	0	0	1	0	0	0	476.629	-0.64998	-0.650461	-2.1361	-0.295282	-0.295282	11	-0.0820227	0	0.0820227	0.000000000000000E+000	0.0820227	0.0000000E+000	0.000000000000000E+000	0.00138945
2	0	0	1	0	0	0	477.929	-0.64998	-0.650384	-2.13621	-0.298059	-0.298059	11	-0.0827941	0	0.0827941	0.000000000000000E+000	0.0827941	0.0000000E+000	0.000000000000000E+000	0.00138936
2	0	0	1	0	0	0	479.229	-0.64998	-0.650518	-2.13554	-0.300836	-0.300836	11	-0.0835655	0	0.0835655	0.000000000000000E+000	0.0835655	0.0000000E+000	0.000000000000000E+000	0.00138921
2	0	0	1	0	0	0	480.529	-0.64998	-0.650518	-2.1396	-0.303614	-0.303614	11	-0.0843372	0	0.0843372	0.000000000000000E+000	0.0843372	0.0000000E+000	0.000000000000000E+000	0.00139185
2	0	0	1	0	0	0	481.829	-0.64998	-0.650308	-2.13968	-0.306395	-0.306395	11	-0.0851098	0	0.0851098	0.000000000000000E+000	0.0851098	0.0000000E+000	0.000000000000000E+000	0.00139145
2	0	0	1	0	0	0	483.129	-0.64998	-0.650155	-2.13547	-0.309174	-0.309174	11	-0.0858818	0	0.0858818	0.000000000000000E+000	0.0858818	0.0000000E+000	0.000000000000000E+000	0.00138838
2	0	0	1	0	0	0	484.429	-0.64998	-0.650537	-2.13558	-0.311952	-0.311952	11	-0.0866532	0	0.0866532	0.000000000000000E+000	0.0866532	0.0000000E+000	0.000000000000000E+000	0.00138928
2	0	0	1	0	0	0	485.729	-0.64998	-0.65048	-2.13512	-0.314727	-0.314727	11	-0.0874242	0	0.0874242	0.000000000000000E+000	0.0874242	0.0000000E+000	0.000000000000000E+000	0.00138885
2	0	0	1	0	0	0	487.029	-0.64998	-0.650441	-2.13151	-0.317501	-0.317501	11	-0.0881946	0	0.0881946	0.000000000000000E+000	0.0881946	0.0000000E+000	0.000000000000000E+000	0.00138642
2	0	0	1	0	0	0	488.329	-0.64998	-0.650327	-2.01317	-0.3202	-0.3202	11	-0.0889443	0	0.0889443	0.000000000000000E+000	0.0889443	0.0000000E+000	0.000000000000000E+000	0.00130922
2	0	0	1	0	0	0	489.629	-0.64998	-0.650499	-1.94144	-0.322761	-0.322761	11	-0.0896559	0	0.0896559	0.000000000000000E+000	0.0896559	0.0000000E+000	0.000000000000000E+000	0.0012629
2	0	0	1	0	0	0	490.929	-0.64998	-0.650384	-1.89889	-0.325251	-0.325251	11	-0.0903474	0	0.0903474	0.000000000000000E+000	0.0903474	0.0000000E+000	0.000000000000000E+000	0.00123501
2	0	0	1	0	0	0	492.229	-0.64998	-0.650537	-1.87153	-0.327698	-0.327698	11	-0.0910273	0	0.0910273	0.000000000000000E+000	0.0910273	0.0000000E+000	0.000000000000000E+000	0.0012175
2	0	0	1	0	0	0	493.529	-0.64998	-0.650422	-1.85533	-0.330118	-0.330118	11	-0.0916995	0	0.0916995	0.000000000000000E+000	0.0916995	0.0000000E+000	0.000000000000000E+000	0.00120675
2	0	0	1	0	0	0	494.829	-0.64998	-0.650518	-1.84151	-0.33252	-0.33252	11	-0.0923667	0	0.0923667	0.000000000000000E+000	0.0923667	0.0000000E+000	0.000000000000000E+000	0.00119794
2	0	0	1	0	0	0	496.129	-0.64998	-0.650365	-1.83334	-0.334911	-0.334911	11	-0.0930308	0	0.0930308	0.000000000000000E+000	0.0930308	0.0000000E+000	0.000000000000000E+000	0.00119234
2	0	0	1	0	0	0	497.429	-0.64998	-0.650346	-1.82484	-0.337289	-0.337289	11	-0.0936914	0	0.0936914	0.000000000000000E+000	0.0936914	0.0000000E+000	0.000000000000000E+000	0.00118678
2	0	0	1	0	0	0	498.729	-0.64998	-0.650422	-1.81965	-0.33966	-0.33966	11	-0.0943499	0	0.0943499	0.000000000000000E+000	0.0943499	0.0000000E+000	0.000000000000000E+000	0.00118354
2	0	0	1	0	0	0	500.029	-0.64998	-0.650441	-1.81739	-0.342024	-0.342024	11	-0.0950068	0	0.0950068	0.000000000000000E+000	0.0950068	0.0000000E+000	0.000000000000000E+000	0.00118211
2	0	0	1	0	0	0	501.329	-0.64998	-0.650365	-1.81223	-0.344382	-0.344382	11	-0.0956615	0	0.0956615	0.000000000000000E+000	0.0956615	0.0000000E+000	0.000000000000000E+000	0.00117861
2	0	0	1	0	0	0	502.629	-0.64998	-0.650346	-1.80788	-0.346732	-0.346732	11	-0.0963145	0	0.0963145	0.000000000000000E+000	0.0963145	0.0000000E+000	0.000000000000000E+000	0.00117575
2	0	0	1	0	0	0	503.929	-0.64998	-0.650346	-1.805	-0.349079	-0.349079	11	-0.0969664	0	0.0969664	0.000000000000000E+000	0.0969664	0.0000000E+000	0.000000000000000E+000	0.00117387
2	0	0	1	0	0	0	505.229	-0.64998	-0.650308	-1.79915	-0.351422	-0.351422	11	-0.0976172	0	0.0976172	0.000000000000000E+000	0.0976172	0.0000000E+000	0.000000000000000E+000	0.00117
2	0	0	1	0	0	0	506.529	-0.64998	-0.650231	-1.79535	-0.353761	-0.353761	11	-0.0982669	0	0.0982669	0.000000000000000E+000	0.0982669	0.0000000E+000	0.000000000000000E+000	0.00116739
2	0	0	1	0	0	0	507.829	-0.64998	-0.650365	-1.78975	-0.356093	-0.356093	11	-0.0989147	0	0.0989147	0.000000000000000E+000	0.0989147	0.0000000E+000	0.000000000000000E+000	0.00116399
2	0	0	1	0	0	0	509.129	-0.64998	-0.650384	-1.78912	-0.35842	-0.35842	11	-0.099561	0	0.099561	0.000000000000000E+000	0.099561	0.0000000E+000	0.000000000000000E+000	0.00116362
2	0	0	1	0	0	0	510.429	-0.64998	-0.650422	-1.79114	-0.360745	-0.360745	11	-0.100207	0	0.100207	0.000000000000000E+000	0.100207	0.0000000E+000	0.000000000000000E+000	0.001165
2	0	0	1	0	0	0	511.729	-0.64998	-0.650403	-1.78756	-0.363069	-0.363069	11	-0.100853	0	0.100853	0.000000000000000E+000	0.100853	0.0000000E+000	0.000000000000000E+000	0.00116263
2	0	0	1	0	0	0	513.029	-0.64998	-0.650365	-1.7858	-0.365391	-0.365391	11	-0.101498	0	0.101498	0.000000000000000E+000	0.101498	0.0000000E+000	0.000000000000000E+000	0.00116142
2	0	0	1	0	0	0	514.329	-0.64998	-0.650308	-1.77807	-0.367709	-0.367709	11	-0.102141	0	0.102141	0.000000000000000E+000	0.102141	0.0000000E+000	0.000000000000000E+000	0.00115629
2	0	0	1	0	0	0	515.629	-0.64998	-0.650289	-1.74626	-0.370013	-0.370013	11	-0.102781	0	0.102781	0.000000000000000E+000	0.102781	0.0000000E+000	0.000000000000000E+000	0.00113558
2	0	0	1	0	0	0	516.929	-0.64998	-0.650365	-1.69549	-0.372245	-0.372245	11	-0.103401	0	0.103401	0.000000000000000E+000	0.103401	0.0000000E+000	0.000000000000000E+000	0.00110269
2	0	0	1	0	0	0	518.229	-0.64998	-0.650461	-1.66682	-0.374425	-0.374425	11	-0.104007	0	0.104007	0.000000000000000E+000	0.104007	0.0000000E+000	0.000000000000000E+000	0.0010842
2	0	0	1	0	0	0	519.529	-0.64998	-0.650422	-1.64318	-0.376575	-0.376575	11	-0.104604	0	0.104604	0.000000000000000E+000	0.104604	0.0000000E+000	0.000000000000000E+000	0.00106876
2	0	0	1	0	0	0	520.829	-0.64998	-0.650327	-1.63235	-0.378705	-0.378705	11	-0.105196	0	0.105196	0.000000000000000E+000	0.105196	0.0000000E+000	0.000000000000000E+000	0.00106156
2	0	0	1	0	0	0	522.129	-0.64998	-0.650499	-1.62741	-0.380822	-0.380822	11	-0.105784	0	0.105784	0.000000000000000E+000	0.105784	0.0000000E+000	0.000000000000000E+000	0.00105863
2	0	0	1	0	0	0	523.429	-0.64998	-0.650346	-1.62027	-0.382931	-0.382931	11	-0.10637	0	0.10637	0.000000000000000E+000	0.10637	0.0000000E+000	0.000000000000000E+000	0.00105373
2	0	0	1	0	0	0	524.729	-0.64998	-0.650384	-1.61319	-0.385033	-0.385033	11	-0.106954	0	0.106954	0.000000000000000E+000	0.106954	0.0000000E+000	0.000000000000000E+000	0.0010492
2	0	0	1	0	0	0	526.029	-0.64998	-0.650403	-1.61068	-0.387129	-0.387129	11	-0.107536	0	0.107536	0.000000000000000E+000	0.107536	0.0000000E+000	0.000000000000000E+000	0.00104759
2	0	0	1	0	0	0	527.329	-0.64998	-0.650327	-1.60708	-0.38922	-0.38922	11	-0.108117	0	0.108117	0.000000000000000E+000	0.108117	0.0000000E+000	0.000000000000000E+000	0.00104513
2	0	0	1	0	0	0	528.629	-0.64998	-0.650441	-1.60163	-0.391304	-0.391304	11	-0.108695	0	0.108695	0.000000000000000E+000	0.108695	0.0000000E+000	0.000000000000000E+000	0.00104176
2	0	0	1	0	0	0	529.929	-0.64998	-0.650403	-1.59611	-0.393384	-0.393384	11	-0.109273	0	0.109273	0.000000000000000E+000	0.109273	0.0000000E+000	0.000000000000000E+000	0.00103811
2	0	0	1	0	0	0	531.229	-0.64998	-0.650403	-1.59817	-0.395461	-0.395461	11	-0.10985	0	0.10985	0.000000000000000E+000	0.10985	0.0000000E+000	0.000000000000000E+000	0.00103946
2	0	0	1	0	0	0	532.529	-0.64998	-0.650441	-1.59346	-0.397532	-0.397532	11	-0.110426	0	0.110426	0.000000000000000E+000	0.110426	0.0000000E+000	0.000000000000000E+000	0.00103645
2	0	0	1	0	0	0	533.829	-0.64998	-0.650365	-1.59048	-0.399603	-0.399603	11	-0.111001	0	0.111001	0.000000000000000E+000	0.111001	0.0000000E+000	0.000000000000000E+000	0.00103439
2	0	0	1	0	0	0	535.129	-0.64998	-0.650346	-1.58725	-0.401671	-0.401671	11	-0.111575	0	0.111575	0.000000000000000E+000	0.111575	0.0000000E+000	0.000000000000000E+000	0.00103226
2	0	0	1	0	0	0	536.429	-0.64998	-0.650289	-1.5896	-0.403735	-0.403735	11	-0.112149	0	0.112149	0.000000000000000E+000	0.112149	0.0000000E+000	0.000000000000000E+000	0.0010337
2	0	0	1	0	0	0	537.729	-0.64998	-0.650441	-1.58651	-0.405797	-0.405797	11	-0.112721	0	0.112721	0.000000000000000E+000	0.112721	0.0000000E+000	0.000000000000000E+000	0.00103193
2	0	0	1	0	0	0	539.029	-0.64998	-0.650327	-1.58417	-0.40786	-0.40786	11	-0.113295	0	0.113295	0.000000000000000E+000	0.113295	0.0000000E+000	0.000000000000000E+000	0.00103023
2	0	0	1	0	0	0	540.329	-0.64998	-0.65048	-1.58901	-0.409924	-0.409924	11	-0.113868	0	0.113868	0.000000000000000E+000	0.113868	0.0000000E+000	0.000000000000000E+000	0.00103362
2	0	0	1	0	0	0	541.629	-0.64998	-0.65048	-1.5823	-0.411983	-0.411983	11	-0.11444	0	0.11444	0.000000000000000E+000	0.11444	0.0000000E+000	0.000000000000000E+000	0.00102926
2	0	0	1	0	0	0	542.929	-0.64998	-0.650346	-1.51195	-0.413992	-0.413992	11	-0.114998	0	0.114998	0.000000000000000E+000	0.114998	0.0000000E+000	0.000000000000000E+000	0.000983288
2	0	0	1	0	0	0	544.229	-0.64998	-0.650346	-1.47551	-0.415928	-0.415928	11	-0.115535	0	0.115535	0.000000000000000E+000	0.115535	0.0000000E+000	0.000000000000000E+000	0.000959589
2	0	0	1	0	0	0	545.529	-0.64998	-0.650422	-1.45299	-0.417829	-0.417829	11	-0.116064	0	0.116064	0.000000000000000E+000	0.116064	0.0000000E+000	0.000000000000000E+000	0.000945058
2	0	0	1	0	0	0	546.829	-0.64998	-0.650327	-1.43685	-0.419706	-0.419706	11	-0.116585	0	0.116585	0.000000000000000E+000	0.116585	0.0000000E+000	0.000000000000000E+000	0.000934422
2	0	0	1	0	0	0	548.129	-0.64998	-0.65048	-1.42803	-0.421569	-0.421569	11	-0.117102	0	0.117102	0.000000000000000E+000	0.117102	0.0000000E+000	0.000000000000000E+000	0.000928905
2	0	0	1	0	0	0	549.429	-0.64998	-0.650441	-1.41631	-0.42342	-0.42342	11	-0.117617	0	0.117617	0.000000000000000E+000	0.117617	0.0000000E+000	0.000000000000000E+000	0.000921229
2	0	0	1	0	0	0	550.729	-0.64998	-0.65048	-1.41017	-0.425262	-0.425262	11	-0.118128	0	0.118128	0.000000000000000E+000	0.118128	0.0000000E+000	0.000000000000000E+000	0.000917284
2	0	0	1	0	0	0	552.029	-0.64998	-0.650365	-1.40763	-0.427099	-0.427099	11	-0.118639	0	0.118639	0.000000000000000E+000	0.118639	0.0000000E+000	0.000000000000000E+000	0.000915475
2	0	0	1	0	0	0	553.329	-0.64998	-0.65027	-1.40162	-0.42893	-0.42893	11	-0.119147	0	0.119147	0.000000000000000E+000	0.119147	0.0000000E+000	0.000000000000000E+000	0.000911432
2	0	0	1	0	0	0	554.629	-0.64998	-0.650384	-1.3986	-0.430757	-0.430757	11	-0.119655	0	0.119655	0.000000000000000E+000	0.119655	0.0000000E+000	0.000000000000000E+000	0.000909628
2	0	0	1	0	0	0	555.929	-0.64998	-0.65048	-1.39768	-0.432578	-0.432578	11	-0.120161	0	0.120161	0.000000000000000E+000	0.120161	0.0000000E+000	0.000000000000000E+000	0.000909166
2	0	0	1	0	0	0	557.229	-0.64998	-0.65048	-1.39605	-0.434399	-0.434399	11	-0.120666	0	0.120666	0.000000000000000E+000	0.120666	0.0000000E+000	0.000000000000000E+000	0.000908101
2	0	0	1	0	0	0	558.529	-0.64998	-0.650537	-1.39217	-0.436215	-0.436215	11	-0.121171	0	0.121171	0.000000000000000E+000	0.121171	0.0000000E+000	0.000000000000000E+000	0.000905656
2	0	0	1	0	0	0	559.829	-0.64998	-0.650346	-1.38625	-0.438025	-0.438025	11	-0.121674	0	0.121674	0.000000000000000E+000	0.121674	0.0000000E+000	0.000000000000000E+000	0.000901544
2	0	0	1	0	0	0	561.129	-0.64998	-0.650365	-1.38533	-0.43983	-0.43983	11	-0.122175	0	0.122175	0.000000000000000E+000	0.122175	0.0000000E+000	0.000000000000000E+000	0.000900971
2	0	0	1	0	0	0	562.429	-0.64998	-0.650403	-1.35007	-0.441609	-0.441609	11	-0.122669	0	0.122669	0.000000000000000E+000	0.122669	0.0000000E+000	0.000000000000000E+000	0.00087809
2	0	0	1	0	0	0	563.729	-0.64998	-0.650422	-1.32001	-0.443346	-0.443346	11	-0.123152	0	0.123152	0.000000000000000E+000	0.123152	0.0000000E+000	0.000000000000000E+000	0.000858563
2	0	0	1	0	0	0	565.029	-0.64998	-0.650346	-1.30482	-0.445058	-0.445058	11	-0.123627	0	0.123627	0.000000000000000E+000	0.123627	0.0000000E+000	0.000000000000000E+000	0.000848582
2	0	0	1	0	0	0	566.329	-0.64998	-0.650384	-1.29774	-0.44675	-0.44675	11	-0.124097	0	0.124097	0.000000000000000E+000	0.124097	0.0000000E+000	0.000000000000000E+000	0.000844032
2	0	0	1	0	0	0	567.629	-0.64998	-0.650308	-1.28837	-0.448429	-0.448429	11	-0.124564	0	0.124564	0.000000000000000E+000	0.124564	0.0000000E+000	0.000000000000000E+000	0.000837837
2	0	0	1	0	0	0	568.929	-0.64998	-0.650365	-1.28146	-0.450098	-0.450098	11	-0.125027	0	0.125027	0.000000000000000E+000	0.125027	0.0000000E+000	0.000000000000000E+000	0.000833417
2	0	0	1	0	0	0	570.229	-0.64998	-0.650365	-1.27736	-0.451757	-0.451757	11	-0.125488	0	0.125488	0.000000000000000E+000	0.125488	0.0000000E+000	0.000000000000000E+000	0.000830751
2	0	0	1	0	0	0	571.529	-0.64998	-0.650327	-1.27429	-0.453411	-0.453411	11	-0.125947	0	0.125947	0.000000000000000E+000	0.125947	0.0000000E+000	0.000000000000000E+000	0.000828707
2	0	0	1	0	0	0	572.829	-0.64998	-0.650365	-1.27388	-0.455064	-0.455064	11	-0.126407	0	0.126407	0.000000000000000E+000	0.126407	0.0000000E+000	0.000000000000000E+000	0.000828485
2	0	0	1	0	0	0	574.129	-0.64998	-0.650327	-1.26807	-0.456714	-0.456714	11	-0.126865	0	0.126865	0.000000000000000E+000	0.126865	0.0000000E+000	0.000000000000000E+000	0.000824661
2	0	0	1	0	0	0	575.429	-0.64998	-0.650365	-1.26238	-0.45836	-0.45836	11	-0.127322	0	0.127322	0.000000000000000E+000	0.127322	0.0000000E+000	0.000000000000000E+000	0.000821009
2	0	0	1	0	0	0	576.729	-0.64998	-0.650365	-1.26059	-0.460008	-0.460008	11	-0.12778	0	0.12778	0.000000000000000E+000	0.12778	0.0000000E+000	0.000000000000000E+000	0.000819847
2	0	0	1	0	0	0	578.029	-0.64998	-0.650346	-1.26229	-0.46165	-0.46165	11	-0.128236	0	0.128236	0.000000000000000E+000	0.128236	0.0000000E+000	0.000000000000000E+000	0.000820925
2	0	0	1	0	0	0	579.329	-0.64998	-0.650422	-1.25938	-0.463288	-0.463288	11	-0.128691	0	0.128691	0.000000000000000E+000	0.128691	0.0000000E+000	0.000000000000000E+000	0.000819128
2	0	0	1	0	0	0	580.629	-0.64998	-0.650384	-1.25348	-0.464921	-0.464921	11	-0.129145	0	0.129145	0.000000000000000E+000	0.129145	0.0000000E+000	0.000000000000000E+000	0.000815246
2	0	0	1	0	0	0	581.929	-0.64998	-0.650441	-1.26969	-0.466556	-0.466556	11	-0.129599	0	0.129599	0.000000000000000E+000	0.129599	0.0000000E+000	0.000000000000000E+000	0.000825862
2	0	0	1	0	0	0	583.229	-0.64998	-0.650251	-1.29769	-0.468232	-0.468232	11	-0.130065	0	0.130065	0.000000000000000E+000	0.130065	0.0000000E+000	0.000000000000000E+000	0.000843823
2	0	0	1	0	0	0	584.529	-0.64998	-0.650384	-1.31997	-0.46994	-0.46994	11	-0.130539	0	0.130539	0.000000000000000E+000	0.130539	0.0000000E+000	0.000000000000000E+000	0.000858486
2	0	0	1	0	0	0	585.829	-0.64998	-0.650422	-1.32534	-0.471664	-0.471664	11	-0.131018	0	0.131018	0.000000000000000E+000	0.131018	0.0000000E+000	0.000000000000000E+000	0.000862031
2	0	0	1	0	0	0	587.129	-0.64998	-0.650365	-1.32929	-0.473393	-0.473393	11	-0.131498	0	0.131498	0.000000000000000E+000	0.131498	0.0000000E+000	0.000000000000000E+000	0.000864527
2	0	0	1	0	0	0	588.429	-0.64998	-0.650441	-1.3348	-0.475129	-0.475129	11	-0.13198	0	0.13198	0.000000000000000E+000	0.13198	0.0000000E+000	0.000000000000000E+000	0.000868209
2	0	0	1	0	0	0	589.729	-0.64998	-0.65048	-1.34088	-0.47687	-0.47687	11	-0.132464	0	0.132464	0.000000000000000E+000	0.132464	0.0000000E+000	0.000000000000000E+000	0.000872216
2	0	0	1	0	0	0	591.029	-0.64998	-0.65048	-1.34006	-0.478612	-0.478612	11	-0.132948	0	0.132948	0.000000000000000E+000	0.132948	0.0000000E+000	0.000000000000000E+000	0.000871679
2	0	0	1	0	0	0	592.329	-0.64998	-0.650327	-1.34059	-0.480354	-0.480354	11	-0.133432	0	0.133432	0.000000000000000E+000	0.133432	0.0000000E+000	0.000000000000000E+000	0.000871821
2	0	0	1	0	0	0	593.629	-0.64998	-0.650422	-1.34267	-0.482099	-0.482099	11	-0.133916	0	0.133916	0.000000000000000E+000	0.133916	0.0000000E+000	0.000000000000000E+000	0.000873306
2	0	0	1	0	0	0	594.929	-0.64998	-0.650441	-1.34252	-0.483845	-0.483845	11	-0.134401	0	0.134401	0.000000000000000E+000	0.134401	0.0000000E+000	0.000000000000000E+000	0.000873232
2	0	0	1	0	0	0	596.229	-0.64998	-0.650384	-1.34118	-0.485589	-0.485589	11	-0.134886	0	0.134886	0.000000000000000E+000	0.134886	0.0000000E+000	0.000000000000000E+000	0.000872284
2	0	0	1	0	0	0	597.529	-0.64998	-0.650537	-1.34011	-0.48733	-0.48733	11	-0.135369	0	0.135369	0.000000000000000E+000	0.135369	0.0000000E+000	0.000000000000000E+000	0.000871791
2	0	0	1	0	0	0	598.829	-0.64998	-0.650384	-1.3421	-0.489073	-0.489073	11	-0.135854	0	0.135854	0.000000000000000E+000	0.135854	0.0000000E+000	0.000000000000000E+000	0.000872883
2	0	0	1	0	0	0	600.129	-0.64998	-0.650422	-1.34413	-0.490815	-0.490815	11	-0.136338	0	0.136338	0.000000000000000E+000	0.136338	0.0000000E+000	0.000000000000000E+000	0.000874254
2	0	0	1	0	0	0	601.429	-0.64998	-0.650518	-1.34278	-0.492558	-0.492558	11	-0.136822	0	0.136822	0.000000000000000E+000	0.136822	0.0000000E+000	0.000000000000000E+000	0.000873503
2	0	0	1	0	0	0	602.729	-0.64998	-0.650461	-1.39419	-0.49432	-0.49432	11	-0.137311	0	0.137311	0.000000000000000E+000	0.137311	0.0000000E+000	0.000000000000000E+000	0.000906864
2	0	0	1	0	0	0	604.029	-0.64998	-0.650441	-1.46521	-0.496182	-0.496182	11	-0.137828	0	0.137828	0.000000000000000E+000	0.137828	0.0000000E+000	0.000000000000000E+000	0.000953037
2	0	0	1	0	0	0	605.329	-0.64998	-0.650384	-1.48935	-0.498103	-0.498103	11	-0.138362	0	0.138362	0.000000000000000E+000	0.138362	0.0000000E+000	0.000000000000000E+000	0.000968652
2	0	0	1	0	0	0	606.629	-0.64998	-0.650308	-1.50168	-0.500048	-0.500048	11	-0.138902	0	0.138902	0.000000000000000E+000	0.138902	0.0000000E+000	0.000000000000000E+000	0.000976554
2	0	0	1	0	0	0	607.929	-0.64998	-0.650403	-1.50805	-0.502006	-0.502006	11	-0.139446	0	0.139446	0.000000000000000E+000	0.139446	0.0000000E+000	0.000000000000000E+000	0.00098084
2	0	0	1	0	0	0	609.229	-0.64998	-0.650422	-1.51194	-0.503969	-0.503969	11	-0.139991	0	0.139991	0.000000000000000E+000	0.139991	0.0000000E+000	0.000000000000000E+000	0.000983402
2	0	0	1	0	0	0	610.529	-0.64998	-0.650308	-1.51679	-0.505937	-0.505937	11	-0.140538	0	0.140538	0.000000000000000E+000	0.140538	0.0000000E+000	0.000000000000000E+000	0.000986382
2	0	0	1	0	0	0	611.829	-0.64998	-0.650403	-1.51915	-0.507915	-0.507915	11	-0.141088	0	0.141088	0.000000000000000E+000	0.141088	0.0000000E+000	0.000000000000000E+000	0.00098806
2	0	0	1	0	0	0	613.129	-0.64998	-0.650441	-1.51966	-0.509891	-0.509891	11	-0.141637	0	0.141637	0.000000000000000E+000	0.141637	0.0000000E+000	0.000000000000000E+000	0.000988449
2	0	0	1	0	0	0	614.429	-0.64998	-0.650365	-1.51721	-0.511864	-0.511864	11	-0.142184	0	0.142184	0.000000000000000E+000	0.142184	0.0000000E+000	0.000000000000000E+000	0.000986743
2	0	0	1	0	0	0	615.729	-0.64998	-0.650518	-1.51389	-0.513833	-0.513833	11	-0.142731	0	0.142731	0.000000000000000E+000	0.142731	0.0000000E+000	0.000000000000000E+000	0.000984811
2	0	0	1	0	0	0	617.029	-0.64998	-0.650308	-1.51144	-0.515801	-0.515801	11	-0.143278	0	0.143278	0.000000000000000E+000	0.143278	0.0000000E+000	0.000000000000000E+000	0.0009829
2	0	0	1	0	0	0	618.329	-0.64998	-0.650441	-1.51608	-0.517769	-0.517769	11	-0.143825	0	0.143825	0.000000000000000E+000	0.143825	0.0000000E+000	0.000000000000000E+000	0.00098612
2	0	0	1	0	0	0	619.629	-0.64998	-0.650327	-1.51773	-0.519738	-0.519738	11	-0.144372	0	0.144372	0.000000000000000E+000	0.144372	0.0000000E+000	0.000000000000000E+000	0.00098702
2	0	0	1	0	0	0	620.929	-0.64998	-0.650384	-1.51351	-0.521712	-0.521712	11	-0.14492	0	0.14492	0.000000000000000E+000	0.14492	0.0000000E+000	0.000000000000000E+000	0.000984364
2	0	0	1	0	0	0	622.229	-0.64998	-0.650308	-1.51785	-0.523683	-0.523683	11	-0.145467	0	0.145467	0.000000000000000E+000	0.145467	0.0000000E+000	0.000000000000000E+000	0.000987069
2	0	0	1	0	0	0	623.529	-0.64998	-0.650441	-1.53793	-0.525674	-0.525674	11	-0.146021	0	0.146021	0.000000000000000E+000	0.146021	0.0000000E+000	0.000000000000000E+000	0.00100033
2	0	0	1	0	0	0	624.829	-0.64998	-0.650327	-1.52927	-0.527667	-0.527667	11	-0.146574	0	0.146574	0.000000000000000E+000	0.146574	0.0000000E+000	0.000000000000000E+000	0.000994528
2	0	0	1	0	0	0	626.129	-0.64998	-0.650365	-1.52157	-0.529651	-0.529651	11	-0.147125	0	0.147125	0.000000000000000E+000	0.147125	0.0000000E+000	0.000000000000000E+000	0.000989576
2	0	0	1	0	0	0	627.429	-0.64998	-0.650461	-1.52387	-0.53163	-0.53163	11	-0.147675	0	0.147675	0.000000000000000E+000	0.147675	0.0000000E+000	0.000000000000000E+000	0.000991216
2	0	0	1	0	0	0	628.729	-0.64998	-0.650384	-1.52019	-0.533607	-0.533607	11	-0.148224	0	0.148224	0.000000000000000E+000	0.148224	0.0000000E+000	0.000000000000000E+000	0.000988708
2	0	0	1	0	0	0	630.029	-0.64998	-0.65048	-1.51508	-0.535582	-0.535582	11	-0.148773	0	0.148773	0.000000000000000E+000	0.148773	0.0000000E+000	0.000000000000000E+000	0.000985528
2	0	0	1	0	0	0	631.329	-0.64998	-0.650422	-1.5156	-0.537553	-0.537553	11	-0.14932	0	0.14932	0.000000000000000E+000	0.14932	0.0000000E+000	0.000000000000000E+000	0.000985782
2	0	0	1	0	0	0	632.629	-0.64998	-0.65027	-1.51556	-0.539521	-0.539521	11	-0.149867	0	0.149867	0.000000000000000E+000	0.149867	0.0000000E+000	0.000000000000000E+000	0.000985524
2	0	0	1	0	0	0	633.929	-0.64998	-0.650422	-1.59628	-0.54154	-0.54154	11	-0.150428	0	0.150428	0.000000000000000E+000	0.150428	0.0000000E+000	0.000000000000000E+000	0.00103825
2	0	0	1	0	0	0	635.229	-0.64998	-0.650441	-1.63452	-0.543645	-0.543645	11	-0.151012	0	0.151012	0.000000000000000E+000	0.151012	0.0000000E+000	0.000000000000000E+000	0.00106316
2	0	0	1	0	0	0	636.529	-0.64998	-0.650499	-1.64678	-0.545778	-0.545778	11	-0.151605	0	0.151605	0.000000000000000E+000	0.151605	0.0000000E+000	0.000000000000000E+000	0.00107123
2	0	0	1	0	0	0	637.829	-0.64998	-0.650384	-1.65641	-0.547925	-0.547925	11	-0.152201	0	0.152201	0.000000000000000E+000	0.152201	0.0000000E+000	0.000000000000000E+000	0.0010773
2	0	0	1	0	0	0	639.129	-0.64998	-0.650441	-1.66631	-0.550087	-0.550087	11	-0.152802	0	0.152802	0.000000000000000E+000	0.152802	0.0000000E+000	0.000000000000000E+000	0.00108383
2	0	0	1	0	0	0	640.429	-0.64998	-0.650422	-1.67183	-0.552259	-0.552259	11	-0.153405	0	0.153405	0.000000000000000E+000	0.153405	0.0000000E+000	0.000000000000000E+000	0.0010874
2	0	0	1	0	0	0	641.729	-0.64998	-0.650403	-1.67416	-0.554437	-0.554437	11	-0.15401	0	0.15401	0.000000000000000E+000	0.15401	0.0000000E+000	0.000000000000000E+000	0.00108888
2	0	0	1	0	0	0	643.029	-0.64998	-0.650441	-1.67894	-0.556615	-0.556615	11	-0.154615	0	0.154615	0.000000000000000E+000	0.154615	0.0000000E+000	0.000000000000000E+000	0.00109206
2	0	0	1	0	0	0	644.329	-0.64998	-0.650384	-1.67964	-0.558794	-0.558794	11	-0.15522	0	0.15522	0.000000000000000E+000	0.15522	0.0000000E+000	0.000000000000000E+000	0.00109241
2	0	0	1	0	0	0	645.629	-0.64998	-0.650327	-1.67658	-0.560973	-0.560973	11	-0.155826	0	0.155826	0.000000000000000E+000	0.155826	0.0000000E+000	0.000000000000000E+000	0.00109033
2	0	0	1	0	0	0	646.929	-0.64998	-0.65048	-1.67632	-0.563153	-0.563153	11	-0.156431	0	0.156431	0.000000000000000E+000	0.156431	0.0000000E+000	0.000000000000000E+000	0.00109041
2	0	0	1	0	0	0	648.229	-0.64998	-0.650384	-1.67314	-0.565334	-0.565334	11	-0.157037	0	0.157037	0.000000000000000E+000	0.157037	0.0000000E+000	0.000000000000000E+000	0.00108818
2	0	0	1	0	0	0	649.529	-0.64998	-0.650384	-1.66998	-0.567509	-0.567509	11	-0.157641	0	0.157641	0.000000000000000E+000	0.157641	0.0000000E+000	0.000000000000000E+000	0.00108613
2	0	0	1	0	0	0	650.829	-0.64998	-0.650193	-1.67297	-0.569682	-0.569682	11	-0.158245	0	0.158245	0.000000000000000E+000	0.158245	0.0000000E+000	0.000000000000000E+000	0.00108776
2	0	0	1	0	0	0	652.129	-0.64998	-0.65048	-1.67627	-0.571858	-0.571858	11	-0.158849	0	0.158849	0.000000000000000E+000	0.158849	0.0000000E+000	0.000000000000000E+000	0.00109038
2	0	0	1	0	0	0	653.429	-0.64998	-0.65048	-1.67659	-0.574038	-0.574038	11	-0.159455	0	0.159455	0.000000000000000E+000	0.159455	0.0000000E+000	0.000000000000000E+000	0.00109059
2	0	0	1	0	0	0	654.729	-0.64998	-0.65027	-1.67729	-0.576217	-0.576217	11	-0.16006	0	0.16006	0.000000000000000E+000	0.16006	0.0000000E+000	0.000000000000000E+000	0.00109069
2	0	0	1	0	0	0	656.029	-0.64998	-0.650403	-1.68893	-0.578398	-0.578398	11	-0.160666	0	0.160666	0.000000000000000E+000	0.160666	0.0000000E+000	0.000000000000000E+000	0.00109848
2	0	0	1	0	0	0	657.329	-0.64998	-0.65027	-1.86497	-0.580717	-0.580717	11	-0.16131	0	0.16131	0.000000000000000E+000	0.16131	0.0000000E+000	0.000000000000000E+000	0.00121274
2	0	0	1	0	0	0	658.629	-0.64998	-0.650556	-1.94245	-0.583199	-0.583199	11	-0.162	0	0.162	0.000000000000000E+000	0.162	0.0000000E+000	0.000000000000000E+000	0.00126367
2	0	0	1	0	0	0	659.929	-0.64998	-0.650461	-1.97842	-0.585753	-0.585753	11	-0.162709	0	0.162709	0.000000000000000E+000	0.162709	0.0000000E+000	0.000000000000000E+000	0.00128688
2	0	0	1	0	0	0	661.229	-0.64998	-0.650518	-1.9933	-0.588336	-0.588336	11	-0.163427	0	0.163427	0.000000000000000E+000	0.163427	0.0000000E+000	0.000000000000000E+000	0.00129667
2	0	0	1	0	0	0	662.529	-0.64998	-0.650327	-2.00373	-0.590935	-0.590935	11	-0.164149	0	0.164149	0.000000000000000E+000	0.164149	0.0000000E+000	0.000000000000000E+000	0.00130308
2	0	0	1	0	0	0	663.829	-0.64998	-0.650441	-2.01048	-0.593544	-0.593544	11	-0.164873	0	0.164873	0.000000000000000E+000	0.164873	0.0000000E+000	0.000000000000000E+000	0.0013077
2	0	0	1	0	0	0	665.129	-0.64998	-0.650441	-2.0144	-0.59616	-0.59616	11	-0.1656	0	0.1656	0.000000000000000E+000	0.1656	0.0000000E+000	0.000000000000000E+000	0.00131025
2	0	0	1	0	0	0	666.429	-0.64998	-0.650403	-2.01802	-0.598781	-0.598781	11	-0.166328	0	0.166328	0.000000000000000E+000	0.166328	0.0000000E+000	0.000000000000000E+000	0.00131253
2	0	0	1	0	0	0	667.729	-0.64998	-0.650384	-2.0198	-0.601405	-0.601405	11	-0.167057	0	0.167057	0.000000000000000E+000	0.167057	0.0000000E+000	0.000000000000000E+000	0.00131365
2	0	0	1	0	0	0	669.029	-0.64998	-0.650422	-2.01729	-0.604029	-0.604029	11	-0.167786	0	0.167786	0.000000000000000E+000	0.167786	0.0000000E+000	0.000000000000000E+000	0.00131209
2	0	0	1	0	0	0	670.329	-0.64998	-0.650289	-2.01714	-0.606653	-0.606653	11	-0.168515	0	0.168515	0.000000000000000E+000	0.168515	0.0000000E+000	0.000000000000000E+000	0.00131172
2	0	0	1	0	0	0	671.629	-0.64998	-0.650384	-2.0173	-0.609276	-0.609276	11	-0.169243	0	0.169243	0.000000000000000E+000	0.169243	0.0000000E+000	0.000000000000000E+000	0.00131202
2	0	0	1	0	0	0	672.929	-0.64998	-0.650346	-2.01795	-0.611898	-0.611898	11	-0.169972	0	0.169972	0.000000000000000E+000	0.169972	0.0000000E+000	0.000000000000000E+000	0.00131236
2	0	0	1	0	0	0	674.229	-0.64998	-0.650365	-2.01648	-0.61452	-0.61452	11	-0.1707	0	0.1707	0.000000000000000E+000	0.1707	0.0000000E+000	0.000000000000000E+000	0.00131145
2	0	0	1	0	0	0	675.529	-0.64998	-0.650403	-2.01645	-0.617142	-0.617142	11	-0.171428	0	0.171428	0.000000000000000E+000	0.171428	0.0000000E+000	0.000000000000000E+000	0.00131151
2	0	0	1	0	0	0	676.829	-0.64998	-0.650441	-2.01549	-0.619762	-0.619762	11	-0.172156	0	0.172156	0.000000000000000E+000	0.172156	0.0000000E+000	0.000000000000000E+000	0.00131096
2	0	0	1	0	0	0	678.129	-0.64998	-0.650289	-2.02109	-0.622382	-0.622382	11	-0.172884	0	0.172884	0.000000000000000E+000	0.172884	0.0000000E+000	0.000000000000000E+000	0.00131429
2	0	0	1	0	0	0	679.429	-0.64998	-0.650384	-2.12742	-0.625091	-0.625091	11	-0.173636	0	0.173636	0.000000000000000E+000	0.173636	0.0000000E+000	0.000000000000000E+000	0.00138364
2	0	0	1	0	0	0	680.729	-0.64998	-0.650327	-2.16172	-0.627884	-0.627884	11	-0.174412	0	0.174412	0.000000000000000E+000	0.174412	0.0000000E+000	0.000000000000000E+000	0.00140582
2	0	0	1	0	0	0	682.029	-0.64998	-0.650422	-2.17381	-0.630703	-0.630703	11	-0.175195	0	0.175195	0.000000000000000E+000	0.175195	0.0000000E+000	0.000000000000000E+000	0.00141389
2	0	0	1	0	0	0	683.329	-0.64998	-0.650384	-2.18124	-0.633534	-0.633534	11	-0.175982	0	0.175982	0.000000000000000E+000	0.175982	0.0000000E+000	0.000000000000000E+000	0.00141865
2	0	0	1	0	0	0	684.629	-0.64998	-0.65048	-2.18753	-0.636374	-0.636374	11	-0.176771	0	0.176771	0.000000000000000E+000	0.176771	0.0000000E+000	0.000000000000000E+000	0.00142294
2	0	0	1	0	0	0	685.929	-0.64998	-0.650422	-2.18836	-0.639219	-0.639219	11	-0.177561	0	0.177561	0.000000000000000E+000	0.177561	0.0000000E+000	0.000000000000000E+000	0.00142336
2	0	0	1	0	0	0	687.229	-0.64998	-0.650384	-2.19473	-0.642069	-0.642069	11	-0.178353	0	0.178353	0.000000000000000E+000	0.178353	0.0000000E+000	0.000000000000000E+000	0.00142742
2	0	0	1	0	0	0	688.529	-0.64998	-0.650537	-2.19133	-0.644919	-0.644919	11	-0.179144	0	0.179144	0.000000000000000E+000	0.179144	0.0000000E+000	0.000000000000000E+000	0.00142554
2	0	0	1	0	0	0	689.829	-0.64998	-0.650537	-2.19286	-0.647769	-0.647769	11	-0.179936	0	0.179936	0.000000000000000E+000	0.179936	0.0000000E+000	0.000000000000000E+000	0.00142653
2	0	0	1	0	0	0	691.129	-0.64998	-0.650365	-2.19193	-0.650619	-0.650619	11	-0.180727	0	0.180727	0.000000000000000E+000	0.180727	0.0000000E+000	0.000000000000000E+000	0.00142555
2	0	0	1	0	0	0	692.429	-0.64998	-0.650365	-2.19098	-0.653468	-0.653468	11	-0.181519	0	0.181519	0.000000000000000E+000	0.181519	0.0000000E+000	0.000000000000000E+000	0.00142494
2	0	0	1	0	0	0	693.729	-0.64998	-0.650231	-2.19388	-0.656317	-0.656317	11	-0.18231	0	0.18231	0.000000000000000E+000	0.18231	0.0000000E+000	0.000000000000000E+000	0.00142653
2	0	0	1	0	0	0	695.029	-0.64998	-0.650441	-2.19551	-0.659171	-0.659171	11	-0.183103	0	0.183103	0.000000000000000E+000	0.183103	0.0000000E+000	0.000000000000000E+000	0.00142805
2	0	0	1	0	0	0	696.329	-0.64998	-0.650289	-2.19638	-0.662026	-0.662026	11	-0.183896	0	0.183896	0.000000000000000E+000	0.183896	0.0000000E+000	0.000000000000000E+000	0.00142828
2	0	0	1	0	0	0	697.629	-0.64998	-0.650461	-2.19487	-0.664879	-0.664879	11	-0.184689	0	0.184689	0.000000000000000E+000	0.184689	0.0000000E+000	0.000000000000000E+000	0.00142767
2	0	0	1	0	0	0	698.929	-0.64998	-0.650499	-2.19486	-0.667733	-0.667733	11	-0.185481	0	0.185481	0.000000000000000E+000	0.185481	0.0000000E+000	0.000000000000000E+000	0.00142775
2	0	0	1	0	0	0	700.229	-0.64998	-0.650537	-2.45045	-0.670768	-0.670768	11	-0.186324	0	0.186324	0.000000000000000E+000	0.186324	0.0000000E+000	0.000000000000000E+000	0.00159411
2	0	0	1	0	0	0	701.529	-0.64998	-0.650251	-2.47366	-0.673973	-0.673973	11	-0.187215	0	0.187215	0.000000000000000E+000	0.187215	0.0000000E+000	0.000000000000000E+000	0.0016085
2	0	0	1	0	0	0	702.829	-0.64998	-0.650384	-2.49288	-0.677203	-0.677203	11	-0.188112	0	0.188112	0.000000000000000E+000	0.188112	0.0000000E+000	0.000000000000000E+000	0.00162133
2	0	0	1	0	0	0	704.129	-0.64998	-0.650365	-2.50196	-0.680451	-0.680451	11	-0.189014	0	0.189014	0.000000000000000E+000	0.189014	0.0000000E+000	0.000000000000000E+000	0.00162719
2	0	0	1	0	0	0	705.429	-0.64998	-0.650346	-2.50785	-0.683708	-0.683708	11	-0.189919	0	0.189919	0.000000000000000E+000	0.189919	0.0000000E+000	0.000000000000000E+000	0.00163097
2	0	0	1	0	0	0	706.729	-0.64998	-0.650327	-2.51046	-0.686971	-0.686971	11	-0.190825	0	0.190825	0.000000000000000E+000	0.190825	0.0000000E+000	0.000000000000000E+000	0.00163262
2	0	0	1	0	0	0	708.029	-0.64998	-0.650251	-2.51438	-0.690238	-0.690238	11	-0.191733	0	0.191733	0.000000000000000E+000	0.191733	0.0000000E+000	0.000000000000000E+000	0.00163498
2	0	0	1	0	0	0	709.329	-0.64998	-0.650422	-2.51746	-0.693509	-0.693509	11	-0.192641	0	0.192641	0.000000000000000E+000	0.192641	0.0000000E+000	0.000000000000000E+000	0.00163741
2	0	0	1	0	0	0	710.629	-0.64998	-0.650422	-2.51942	-0.696782	-0.696782	11	-0.193551	0	0.193551	0.000000000000000E+000	0.193551	0.0000000E+000	0.000000000000000E+000	0.00163869
2	0	0	1	0	0	0	711.929	-0.64998	-0.650461	-2.52199	-0.700059	-0.700059	11	-0.194461	0	0.194461	0.000000000000000E+000	0.194461	0.0000000E+000	0.000000000000000E+000	0.00164045
2	0	0	1	0	0	0	713.229	-0.64998	-0.65027	-2.52171	-0.703338	-0.703338	11	-0.195372	0	0.195372	0.000000000000000E+000	0.195372	0.0000000E+000	0.000000000000000E+000	0.00163979
2	0	0	1	0	0	0	714.529	-0.64998	-0.650384	-2.52399	-0.706617	-0.706617	11	-0.196282	0	0.196282	0.000000000000000E+000	0.196282	0.0000000E+000	0.000000000000000E+000	0.00164156
2	0	0	1	0	0	0	715.829	-0.64998	-0.650365	-2.52149	-0.709897	-0.709897	11	-0.197194	0	0.197194	0.000000000000000E+000	0.197194	0.0000000E+000	0.000000000000000E+000	0.00163989
2	0	0	1	0	0	0	717.129	-0.64998	-0.650403	-2.51921	-0.713173	-0.713173	11	-0.198104	0	0.198104	0.000000000000000E+000	0.198104	0.0000000E+000	0.000000000000000E+000	0.00163851
2	0	0	1	0	0	0	718.429	-0.64998	-0.650231	-2.5189	-0.716448	-0.716448	11	-0.199013	0	0.199013	0.000000000000000E+000	0.199013	0.0000000E+000	0.000000000000000E+000	0.00163787
2	0	0	1	0	0	0	719.729	-0.64998	-0.65027	-2.518	-0.719722	-0.719722	11	-0.199923	0	0.199923	0.000000000000000E+000	0.199923	0.0000000E+000	0.000000000000000E+000	0.00163738
2	0	0	1	0	0	0	721.029	-0.64998	-0.650365	-2.51807	-0.722994	-0.722994	11	-0.200832	0	0.200832	0.000000000000000E+000	0.200832	0.0000000E+000	0.000000000000000E+000	0.00163766
2	0	0	1	0	0	0	722.329	-0.64998	-0.650308	-2.51712	-0.726267	-0.726267	11	-0.201741	0	0.201741	0.000000000000000E+000	0.201741	0.0000000E+000	0.000000000000000E+000	0.0016369
2	0	0	1	0	0	0	723.629	-0.64998	-0.650403	-2.51733	-0.729539	-0.729539	11	-0.20265	0	0.20265	0.000000000000000E+000	0.20265	0.0000000E+000	0.000000000000000E+000	0.00163728
2	0	0	1	0	0	0	724.929	-0.64998	-0.650403	-2.51595	-0.73281	-0.73281	11	-0.203558	0	0.203558	0.000000000000000E+000	0.203558	0.0000000E+000	0.000000000000000E+000	0.00163638
2	0	0	1	0	0	0	726.229	-0.64998	-0.650632	-2.51262	-0.736079	-0.736079	11	-0.204466	0	0.204466	0.000000000000000E+000	0.204466	0.0000000E+000	0.000000000000000E+000	0.00163479
2	0	0	1	0	0	0	727.529	-0.64998	-0.650193	-2.51048	-0.739344	-0.739344	11	-0.205373	0	0.205373	0.000000000000000E+000	0.205373	0.0000000E+000	0.000000000000000E+000	0.0016323
2	0	0	1	0	0	0	728.08	-0.64998	-0.650251	-2.51107	-0.740728	-0.740728	11	-0.205758	0	0.205758	0.000000000000000E+000	0.205758	0.0000000E+000	0.000000000000000E+000	0.00163283