File: ZnPVAECH_09 04-22-22-Zn -09 PVA ECH 1600 rpm K-L gc3_03_CA_C05(1).mpt
EC-Lab ASCII FILE
Nb header lines : 63

Chronoamperometry / Chronocoulometry

Run on channel : 5 (SN 6729)
User :
CE vs. WE compliance from -10 V to 10 V
Electrode connection : standard
Potential control : Ewe
Ewe ctrl range : min = -2.50 V, max = 2.50 V
Safety Limits :
	Do not start on E overload
Acquisition started on : 04/04/2022 13:47:44.060
Technique started on : 04/04/2022 13:52:25.734
Loaded Setting File :  NONE
Saved on :
	File : 04-22-22-Zn PVA ECH 1600 rpm K-L gc3_03_CA_C05.mpr
	Directory : \\research-scb.egr.msu.edu\research-scb\Mindy\Koutecky Levich\Zn PVA\ECH\04-04-22\
	Host : 35.9.136.210
Device : VSP (SN 0012)
Address : 35.9.137.65
EC-Lab for windows v11.43 (software)
Internet server v11.40 (firmware)
Command interpretor v11.40 (firmware)
Electrode material : Au/Pd
Initial state :
Electrolyte : NaCl (0.2M)
Comments : Fe(CN)63-/Fe(CN)64- 5.10-3 M
Reference electrode : SCE Saturated Calomel Electrode (0.241 V)
Electrode surface area : 0.196 cm²
Characteristic mass : 0.001 g
Equivalent Weight : 0.000 g/eq.
Density : 0.000 g/cm3
Volume (V) : 0.001 cm³
Cycle Definition : Charge/Discharge alternance
Ei (V)              -0.900
vs.                 Ref
ti (h:m:s)          0:10:0.0000
Imax                pass
unit Imax           mA
Imin                pass
unit Imin           mA
dQM                 0.000
unit dQM            mA.h
record              <I>
dI                  5.000
unit dI             µA
dQ                  0.000
unit dQ             mA.h
dt (s)              0.1000
dta (s)             0.1000
E range min (V)     -2.500
E range max (V)     2.500
I Range             Auto
I Range min         Unset
I Range max         Unset
I Range init        Unset
Bandwidth           5
goto Ns'            0
nc cycles           0

mode	ox/red	error	control changes	Ns changes	counter inc.	Ns	time/s	control/V	Ewe/V	<I>/mA	dQ/C	(Q-Qo)/C	I Range	Q charge/discharge/mA.h	half cycle	Q discharge/mA.h	Q charge/mA.h	Capacity/mA.h	Efficiency/%	cycle number	P/W
2	0	0	0	0	0	0	281.674	-0.899966	-0.900305	-3.81776	-0.00011528	-0.00011528	11	-3.20221e-05	0	3.20221e-05	0.000000000000000E+000	3.20221e-05	0.0000000E+000	0.000000000000000E+000	0.00343715
2	0	0	0	0	0	0	282.674	-0.899966	-0.900458	-3.7756	-0.00389377	-0.00389377	11	-0.0010816	0	0.0010816	0.000000000000000E+000	0.0010816	0.0000000E+000	0.000000000000000E+000	0.00339977
2	0	0	0	0	0	0	283.674	-0.899966	-0.900496	-3.77203	-0.00766788	-0.00766788	11	-0.00212997	0	0.00212997	0.000000000000000E+000	0.00212997	0.0000000E+000	0.000000000000000E+000	0.0033967
2	0	0	0	0	0	0	284.674	-0.899966	-0.900496	-3.76486	-0.0114372	-0.0114372	11	-0.00317701	0	0.00317701	0.000000000000000E+000	0.00317701	0.0000000E+000	0.000000000000000E+000	0.00339024
2	0	0	0	0	0	0	285.674	-0.899966	-0.900286	-3.7656	-0.0152034	-0.0152034	11	-0.00422318	0	0.00422318	0.000000000000000E+000	0.00422318	0.0000000E+000	0.000000000000000E+000	0.00339012
2	0	0	0	0	0	0	286.674	-0.899966	-0.900305	-3.76281	-0.0189652	-0.0189652	11	-0.00526812	0	0.00526812	0.000000000000000E+000	0.00526812	0.0000000E+000	0.000000000000000E+000	0.00338768
2	0	0	0	0	0	0	287.674	-0.899966	-0.900458	-3.75357	-0.0227243	-0.0227243	11	-0.00631232	0	0.00631232	0.000000000000000E+000	0.00631232	0.0000000E+000	0.000000000000000E+000	0.00337994
2	0	0	0	0	0	0	288.674	-0.899966	-0.900534	-3.76155	-0.0264831	-0.0264831	11	-0.00735643	0	0.00735643	0.000000000000000E+000	0.00735643	0.0000000E+000	0.000000000000000E+000	0.0033874
2	0	0	0	0	0	0	289.674	-0.899966	-0.900382	-3.75935	-0.0302416	-0.0302416	11	-0.00840045	0	0.00840045	0.000000000000000E+000	0.00840045	0.0000000E+000	0.000000000000000E+000	0.00338485
2	0	0	0	0	0	0	290.674	-0.899966	-0.900305	-3.75032	-0.0339979	-0.0339979	11	-0.00944385	0	0.00944385	0.000000000000000E+000	0.00944385	0.0000000E+000	0.000000000000000E+000	0.00337643
2	0	0	0	0	0	0	291.674	-0.899966	-0.900496	-3.83514	-0.0377795	-0.0377795	11	-0.0104943	0	0.0104943	0.000000000000000E+000	0.0104943	0.0000000E+000	0.000000000000000E+000	0.00345353
2	0	0	0	0	0	0	292.674	-0.899966	-0.900534	-3.82429	-0.0416049	-0.0416049	11	-0.0115569	0	0.0115569	0.000000000000000E+000	0.0115569	0.0000000E+000	0.000000000000000E+000	0.00344391
2	0	0	0	0	0	0	293.674	-0.899966	-0.900248	-3.81964	-0.0454259	-0.0454259	11	-0.0126183	0	0.0126183	0.000000000000000E+000	0.0126183	0.0000000E+000	0.000000000000000E+000	0.00343863
2	0	0	0	0	0	0	294.674	-0.899966	-0.900229	-3.82082	-0.0492465	-0.0492465	11	-0.0136796	0	0.0136796	0.000000000000000E+000	0.0136796	0.0000000E+000	0.000000000000000E+000	0.00343962
2	0	0	0	0	0	0	295.674	-0.899966	-0.900286	-3.82369	-0.0530687	-0.0530687	11	-0.0147413	0	0.0147413	0.000000000000000E+000	0.0147413	0.0000000E+000	0.000000000000000E+000	0.00344241
2	0	0	0	0	0	0	296.674	-0.899966	-0.90021	-3.82223	-0.0568902	-0.0568902	11	-0.0158028	0	0.0158028	0.000000000000000E+000	0.0158028	0.0000000E+000	0.000000000000000E+000	0.00344081
2	0	0	0	0	0	0	297.674	-0.899966	-0.90042	-3.82253	-0.0607113	-0.0607113	11	-0.0168643	0	0.0168643	0.000000000000000E+000	0.0168643	0.0000000E+000	0.000000000000000E+000	0.00344188
2	0	0	0	0	0	0	298.674	-0.899966	-0.900458	-3.81421	-0.0645278	-0.0645278	11	-0.0179244	0	0.0179244	0.000000000000000E+000	0.0179244	0.0000000E+000	0.000000000000000E+000	0.00343453
2	0	0	0	0	0	0	299.674	-0.899966	-0.900534	-3.80949	-0.0683387	-0.0683387	11	-0.018983	0	0.018983	0.000000000000000E+000	0.018983	0.0000000E+000	0.000000000000000E+000	0.00343058
2	0	0	0	0	0	0	300.674	-0.899966	-0.900286	-3.80916	-0.0721458	-0.0721458	11	-0.0200405	0	0.0200405	0.000000000000000E+000	0.0200405	0.0000000E+000	0.000000000000000E+000	0.00342933
2	0	0	0	0	0	0	301.674	-0.899966	-0.900343	-3.80866	-0.0759542	-0.0759542	11	-0.0210984	0	0.0210984	0.000000000000000E+000	0.0210984	0.0000000E+000	0.000000000000000E+000	0.0034291
2	0	0	0	0	0	0	302.674	-0.899966	-0.900286	-3.73633	-0.0797523	-0.0797523	11	-0.0221534	0	0.0221534	0.000000000000000E+000	0.0221534	0.0000000E+000	0.000000000000000E+000	0.00336376
2	0	0	0	0	0	0	303.674	-0.899966	-0.900362	-3.73056	-0.0834794	-0.0834794	11	-0.0231887	0	0.0231887	0.000000000000000E+000	0.0231887	0.0000000E+000	0.000000000000000E+000	0.00335886
2	0	0	0	0	0	0	304.674	-0.899966	-0.900382	-3.73537	-0.087213	-0.087213	11	-0.0242258	0	0.0242258	0.000000000000000E+000	0.0242258	0.0000000E+000	0.000000000000000E+000	0.00336326
2	0	0	0	0	0	0	305.674	-0.899966	-0.900362	-3.73279	-0.0909458	-0.0909458	11	-0.0252627	0	0.0252627	0.000000000000000E+000	0.0252627	0.0000000E+000	0.000000000000000E+000	0.00336086
2	0	0	0	0	0	0	306.674	-0.899966	-0.900267	-3.73141	-0.094677	-0.094677	11	-0.0262992	0	0.0262992	0.000000000000000E+000	0.0262992	0.0000000E+000	0.000000000000000E+000	0.00335926
2	0	0	0	0	0	0	307.674	-0.899966	-0.900649	-3.72984	-0.0984078	-0.0984078	11	-0.0273355	0	0.0273355	0.000000000000000E+000	0.0273355	0.0000000E+000	0.000000000000000E+000	0.00335928
2	0	0	0	0	0	0	308.674	-0.899966	-0.900496	-3.72877	-0.102137	-0.102137	11	-0.0283715	0	0.0283715	0.000000000000000E+000	0.0283715	0.0000000E+000	0.000000000000000E+000	0.00335774
2	0	0	0	0	0	0	309.674	-0.899966	-0.900382	-3.72567	-0.105863	-0.105863	11	-0.0294065	0	0.0294065	0.000000000000000E+000	0.0294065	0.0000000E+000	0.000000000000000E+000	0.00335452
2	0	0	0	0	0	0	310.674	-0.899966	-0.900362	-3.72742	-0.109591	-0.109591	11	-0.0304419	0	0.0304419	0.000000000000000E+000	0.0304419	0.0000000E+000	0.000000000000000E+000	0.00335603
2	0	0	0	0	0	0	311.674	-0.899966	-0.900305	-3.73412	-0.11332	-0.11332	11	-0.0314778	0	0.0314778	0.000000000000000E+000	0.0314778	0.0000000E+000	0.000000000000000E+000	0.00336185
2	0	0	0	0	0	0	312.674	-0.899966	-0.900362	-3.51917	-0.116966	-0.116966	11	-0.0324905	0	0.0324905	0.000000000000000E+000	0.0324905	0.0000000E+000	0.000000000000000E+000	0.00316853
2	0	0	0	0	0	0	313.674	-0.899966	-0.900382	-3.58711	-0.120518	-0.120518	11	-0.0334773	0	0.0334773	0.000000000000000E+000	0.0334773	0.0000000E+000	0.000000000000000E+000	0.00322977
2	0	0	0	0	0	0	314.674	-0.899966	-0.900439	-3.5923	-0.124115	-0.124115	11	-0.0344765	0	0.0344765	0.000000000000000E+000	0.0344765	0.0000000E+000	0.000000000000000E+000	0.00323464
2	0	0	0	0	0	0	315.674	-0.899966	-0.900343	-3.59249	-0.127711	-0.127711	11	-0.0354753	0	0.0354753	0.000000000000000E+000	0.0354753	0.0000000E+000	0.000000000000000E+000	0.00323448
2	0	0	0	0	0	0	316.674	-0.899966	-0.900439	-3.59021	-0.131306	-0.131306	11	-0.0364739	0	0.0364739	0.000000000000000E+000	0.0364739	0.0000000E+000	0.000000000000000E+000	0.00323276
2	0	0	0	0	0	0	317.674	-0.899966	-0.900248	-3.58925	-0.134899	-0.134899	11	-0.0374721	0	0.0374721	0.000000000000000E+000	0.0374721	0.0000000E+000	0.000000000000000E+000	0.00323122
2	0	0	0	0	0	0	318.674	-0.899966	-0.900286	-3.59497	-0.138492	-0.138492	11	-0.0384701	0	0.0384701	0.000000000000000E+000	0.0384701	0.0000000E+000	0.000000000000000E+000	0.0032365
2	0	0	0	0	0	0	319.674	-0.899966	-0.900573	-3.59316	-0.142087	-0.142087	11	-0.0394686	0	0.0394686	0.000000000000000E+000	0.0394686	0.0000000E+000	0.000000000000000E+000	0.0032359
2	0	0	0	0	0	0	320.674	-0.899966	-0.900458	-3.59086	-0.145679	-0.145679	11	-0.0404665	0	0.0404665	0.000000000000000E+000	0.0404665	0.0000000E+000	0.000000000000000E+000	0.00323342
2	0	0	0	0	0	0	321.674	-0.899966	-0.900362	-3.51553	-0.149249	-0.149249	11	-0.0414581	0	0.0414581	0.000000000000000E+000	0.0414581	0.0000000E+000	0.000000000000000E+000	0.00316526
2	0	0	0	0	0	0	322.674	-0.899966	-0.900401	-3.47672	-0.152729	-0.152729	11	-0.0424249	0	0.0424249	0.000000000000000E+000	0.0424249	0.0000000E+000	0.000000000000000E+000	0.00313044
2	0	0	0	0	0	0	323.674	-0.899966	-0.90042	-3.47825	-0.156211	-0.156211	11	-0.0433919	0	0.0433919	0.000000000000000E+000	0.0433919	0.0000000E+000	0.000000000000000E+000	0.00313188
2	0	0	0	0	0	0	324.674	-0.899966	-0.900515	-3.47889	-0.15969	-0.15969	11	-0.0443584	0	0.0443584	0.000000000000000E+000	0.0443584	0.0000000E+000	0.000000000000000E+000	0.00313279
2	0	0	0	0	0	0	325.674	-0.899966	-0.900362	-3.48204	-0.16317	-0.16317	11	-0.0453251	0	0.0453251	0.000000000000000E+000	0.0453251	0.0000000E+000	0.000000000000000E+000	0.0031351
2	0	0	0	0	0	0	326.674	-0.899966	-0.900401	-3.48029	-0.166649	-0.166649	11	-0.0462915	0	0.0462915	0.000000000000000E+000	0.0462915	0.0000000E+000	0.000000000000000E+000	0.00313366
2	0	0	0	0	0	0	327.674	-0.899966	-0.900382	-3.47693	-0.170127	-0.170127	11	-0.0472575	0	0.0472575	0.000000000000000E+000	0.0472575	0.0000000E+000	0.000000000000000E+000	0.00313057
2	0	0	0	0	0	0	328.674	-0.899966	-0.900515	-3.4772	-0.173605	-0.173605	11	-0.0482236	0	0.0482236	0.000000000000000E+000	0.0482236	0.0000000E+000	0.000000000000000E+000	0.00313127
2	0	0	0	0	0	0	329.674	-0.899966	-0.900401	-3.3603	-0.177042	-0.177042	11	-0.0491782	0	0.0491782	0.000000000000000E+000	0.0491782	0.0000000E+000	0.000000000000000E+000	0.00302562
2	0	0	0	0	0	0	330.674	-0.899966	-0.900248	-3.24125	-0.180317	-0.180317	11	-0.0500882	0	0.0500882	0.000000000000000E+000	0.0500882	0.0000000E+000	0.000000000000000E+000	0.00291792
2	0	0	0	0	0	0	331.674	-0.899966	-0.900343	-3.22155	-0.183545	-0.183545	11	-0.0509847	0	0.0509847	0.000000000000000E+000	0.0509847	0.0000000E+000	0.000000000000000E+000	0.00290051
2	0	0	0	0	0	0	332.674	-0.899966	-0.900095	-3.22577	-0.186768	-0.186768	11	-0.05188	0	0.05188	0.000000000000000E+000	0.05188	0.0000000E+000	0.000000000000000E+000	0.0029035
2	0	0	0	0	0	0	333.674	-0.899966	-0.900401	-3.2201	-0.189992	-0.189992	11	-0.0527755	0	0.0527755	0.000000000000000E+000	0.0527755	0.0000000E+000	0.000000000000000E+000	0.00289938
2	0	0	0	0	0	0	334.674	-0.899966	-0.900343	-3.22933	-0.193214	-0.193214	11	-0.0536707	0	0.0536707	0.000000000000000E+000	0.0536707	0.0000000E+000	0.000000000000000E+000	0.00290751
2	0	0	0	0	0	0	335.674	-0.899966	-0.900305	-3.21665	-0.196437	-0.196437	11	-0.0545658	0	0.0545658	0.000000000000000E+000	0.0545658	0.0000000E+000	0.000000000000000E+000	0.00289596
2	0	0	0	0	0	0	336.674	-0.899966	-0.900248	-3.22884	-0.19966	-0.19966	11	-0.0554611	0	0.0554611	0.000000000000000E+000	0.0554611	0.0000000E+000	0.000000000000000E+000	0.00290675
2	0	0	0	0	0	0	337.674	-0.899966	-0.900343	-3.21534	-0.20288	-0.20288	11	-0.0563556	0	0.0563556	0.000000000000000E+000	0.0563556	0.0000000E+000	0.000000000000000E+000	0.00289491
2	0	0	0	0	0	0	338.674	-0.899966	-0.90042	-3.2268	-0.2061	-0.2061	11	-0.05725	0	0.05725	0.000000000000000E+000	0.05725	0.0000000E+000	0.000000000000000E+000	0.00290548
2	0	0	0	0	0	0	339.674	-0.899966	-0.900286	-3.21196	-0.209318	-0.209318	11	-0.058144	0	0.058144	0.000000000000000E+000	0.058144	0.0000000E+000	0.000000000000000E+000	0.00289168
2	0	0	0	0	0	0	340.674	-0.899966	-0.900343	-3.10422	-0.212504	-0.212504	11	-0.0590288	0	0.0590288	0.000000000000000E+000	0.0590288	0.0000000E+000	0.000000000000000E+000	0.00279487
2	0	0	0	0	0	0	341.674	-0.899966	-0.900496	-3.02567	-0.215547	-0.215547	11	-0.0598743	0	0.0598743	0.000000000000000E+000	0.0598743	0.0000000E+000	0.000000000000000E+000	0.00272461
2	0	0	0	0	0	0	342.674	-0.899966	-0.900401	-2.99031	-0.218551	-0.218551	11	-0.0607087	0	0.0607087	0.000000000000000E+000	0.0607087	0.0000000E+000	0.000000000000000E+000	0.00269247
2	0	0	0	0	0	0	343.674	-0.899966	-0.900439	-3.00146	-0.221553	-0.221553	11	-0.0615425	0	0.0615425	0.000000000000000E+000	0.0615425	0.0000000E+000	0.000000000000000E+000	0.00270263
2	0	0	0	0	0	0	344.674	-0.899966	-0.900305	-3.00418	-0.224553	-0.224553	11	-0.0623758	0	0.0623758	0.000000000000000E+000	0.0623758	0.0000000E+000	0.000000000000000E+000	0.00270468
2	0	0	0	0	0	0	345.674	-0.899966	-0.900305	-2.98964	-0.227551	-0.227551	11	-0.0632085	0	0.0632085	0.000000000000000E+000	0.0632085	0.0000000E+000	0.000000000000000E+000	0.00269158
2	0	0	0	0	0	0	346.674	-0.899966	-0.900401	-3.00147	-0.23055	-0.23055	11	-0.0640417	0	0.0640417	0.000000000000000E+000	0.0640417	0.0000000E+000	0.000000000000000E+000	0.00270253
2	0	0	0	0	0	0	347.674	-0.899966	-0.900305	-2.99866	-0.233548	-0.233548	11	-0.0648743	0	0.0648743	0.000000000000000E+000	0.0648743	0.0000000E+000	0.000000000000000E+000	0.00269971
2	0	0	0	0	0	0	348.674	-0.899966	-0.900401	-2.99414	-0.236545	-0.236545	11	-0.065707	0	0.065707	0.000000000000000E+000	0.065707	0.0000000E+000	0.000000000000000E+000	0.00269593
2	0	0	0	0	0	0	349.674	-0.899966	-0.900401	-3.00606	-0.239543	-0.239543	11	-0.0665397	0	0.0665397	0.000000000000000E+000	0.0665397	0.0000000E+000	0.000000000000000E+000	0.00270666
2	0	0	0	0	0	0	350.674	-0.899966	-0.900343	-2.78681	-0.242454	-0.242454	11	-0.0673484	0	0.0673484	0.000000000000000E+000	0.0673484	0.0000000E+000	0.000000000000000E+000	0.00250909
2	0	0	0	0	0	0	351.674	-0.899966	-0.900248	-2.71973	-0.245194	-0.245194	11	-0.0681093	0	0.0681093	0.000000000000000E+000	0.0681093	0.0000000E+000	0.000000000000000E+000	0.00244843
2	0	0	0	0	0	0	352.674	-0.899966	-0.900343	-2.68751	-0.247891	-0.247891	11	-0.0688587	0	0.0688587	0.000000000000000E+000	0.0688587	0.0000000E+000	0.000000000000000E+000	0.00241968
2	0	0	0	0	0	0	353.674	-0.899966	-0.900515	-2.67696	-0.250578	-0.250578	11	-0.069605	0	0.069605	0.000000000000000E+000	0.069605	0.0000000E+000	0.000000000000000E+000	0.00241065
2	0	0	0	0	0	0	354.674	-0.899966	-0.90042	-2.68505	-0.253261	-0.253261	11	-0.0703504	0	0.0703504	0.000000000000000E+000	0.0703504	0.0000000E+000	0.000000000000000E+000	0.00241767
2	0	0	0	0	0	0	355.674	-0.899966	-0.90042	-2.68756	-0.255946	-0.255946	11	-0.071096	0	0.071096	0.000000000000000E+000	0.071096	0.0000000E+000	0.000000000000000E+000	0.00241993
2	0	0	0	0	0	0	356.674	-0.899966	-0.900267	-2.678	-0.258628	-0.258628	11	-0.071841	0	0.071841	0.000000000000000E+000	0.071841	0.0000000E+000	0.000000000000000E+000	0.00241091
2	0	0	0	0	0	0	357.674	-0.899966	-0.900229	-2.67861	-0.261309	-0.261309	11	-0.072586	0	0.072586	0.000000000000000E+000	0.072586	0.0000000E+000	0.000000000000000E+000	0.00241136
2	0	0	0	0	0	0	358.674	-0.899966	-0.900362	-2.69411	-0.263993	-0.263993	11	-0.0733314	0	0.0733314	0.000000000000000E+000	0.0733314	0.0000000E+000	0.000000000000000E+000	0.00242568
2	0	0	0	0	0	0	359.674	-0.899966	-0.900439	-2.68205	-0.266676	-0.266676	11	-0.0740766	0	0.0740766	0.000000000000000E+000	0.0740766	0.0000000E+000	0.000000000000000E+000	0.00241502
2	0	0	0	0	0	0	360.674	-0.899966	-0.900286	-2.67197	-0.269357	-0.269357	11	-0.0748213	0	0.0748213	0.000000000000000E+000	0.0748213	0.0000000E+000	0.000000000000000E+000	0.00240554
2	0	0	0	0	0	0	361.674	-0.899966	-0.900267	-2.6883	-0.272039	-0.272039	11	-0.0755663	0	0.0755663	0.000000000000000E+000	0.0755663	0.0000000E+000	0.000000000000000E+000	0.00242019
2	0	0	0	0	0	0	362.674	-0.899966	-0.900515	-2.68084	-0.27472	-0.27472	11	-0.0763111	0	0.0763111	0.000000000000000E+000	0.0763111	0.0000000E+000	0.000000000000000E+000	0.00241414
2	0	0	0	0	0	0	363.674	-0.899966	-0.900362	-2.67476	-0.277399	-0.277399	11	-0.0770554	0	0.0770554	0.000000000000000E+000	0.0770554	0.0000000E+000	0.000000000000000E+000	0.00240825
2	0	0	0	0	0	0	364.674	-0.899966	-0.90042	-2.67356	-0.280078	-0.280078	11	-0.0777993	0	0.0777993	0.000000000000000E+000	0.0777993	0.0000000E+000	0.000000000000000E+000	0.00240733
2	0	0	0	0	0	0	365.674	-0.899966	-0.90042	-2.68661	-0.282756	-0.282756	11	-0.0785434	0	0.0785434	0.000000000000000E+000	0.0785434	0.0000000E+000	0.000000000000000E+000	0.00241908
2	0	0	0	0	0	0	366.674	-0.899966	-0.900343	-2.6755	-0.285433	-0.285433	11	-0.079287	0	0.079287	0.000000000000000E+000	0.079287	0.0000000E+000	0.000000000000000E+000	0.00240887
2	0	0	0	0	0	0	367.674	-0.899966	-0.900458	-2.66936	-0.288111	-0.288111	11	-0.0800308	0	0.0800308	0.000000000000000E+000	0.0800308	0.0000000E+000	0.000000000000000E+000	0.00240364
2	0	0	0	0	0	0	368.674	-0.899966	-0.900477	-2.68624	-0.290792	-0.290792	11	-0.0807755	0	0.0807755	0.000000000000000E+000	0.0807755	0.0000000E+000	0.000000000000000E+000	0.0024189
2	0	0	0	0	0	0	369.674	-0.899966	-0.900305	-2.58878	-0.293431	-0.293431	11	-0.0815085	0	0.0815085	0.000000000000000E+000	0.0815085	0.0000000E+000	0.000000000000000E+000	0.00233069
2	0	0	0	0	0	0	370.674	-0.899966	-0.900248	-2.46384	-0.295943	-0.295943	11	-0.0822063	0	0.0822063	0.000000000000000E+000	0.0822063	0.0000000E+000	0.000000000000000E+000	0.00221807
2	0	0	0	0	0	0	371.674	-0.899966	-0.900382	-2.4318	-0.298385	-0.298385	11	-0.0828848	0	0.0828848	0.000000000000000E+000	0.0828848	0.0000000E+000	0.000000000000000E+000	0.00218955
2	0	0	0	0	0	0	372.674	-0.899966	-0.90042	-2.40423	-0.300803	-0.300803	11	-0.0835565	0	0.0835565	0.000000000000000E+000	0.0835565	0.0000000E+000	0.000000000000000E+000	0.00216482
2	0	0	0	0	0	0	373.674	-0.899966	-0.900382	-2.40756	-0.303216	-0.303216	11	-0.0842266	0	0.0842266	0.000000000000000E+000	0.0842266	0.0000000E+000	0.000000000000000E+000	0.00216772
2	0	0	0	0	0	0	374.674	-0.899966	-0.900362	-2.41567	-0.305624	-0.305624	11	-0.0848955	0	0.0848955	0.000000000000000E+000	0.0848955	0.0000000E+000	0.000000000000000E+000	0.00217498
2	0	0	0	0	0	0	375.674	-0.899966	-0.90042	-2.40345	-0.308032	-0.308032	11	-0.0855644	0	0.0855644	0.000000000000000E+000	0.0855644	0.0000000E+000	0.000000000000000E+000	0.00216411
2	0	0	0	0	0	0	376.674	-0.899966	-0.900286	-2.40945	-0.310442	-0.310442	11	-0.0862339	0	0.0862339	0.000000000000000E+000	0.0862339	0.0000000E+000	0.000000000000000E+000	0.00216919
2	0	0	0	0	0	0	377.674	-0.899966	-0.900439	-2.41485	-0.312852	-0.312852	11	-0.0869034	0	0.0869034	0.000000000000000E+000	0.0869034	0.0000000E+000	0.000000000000000E+000	0.00217442
2	0	0	0	0	0	0	378.674	-0.899966	-0.900305	-2.40645	-0.315264	-0.315264	11	-0.0875734	0	0.0875734	0.000000000000000E+000	0.0875734	0.0000000E+000	0.000000000000000E+000	0.00216654
2	0	0	0	0	0	0	379.674	-0.899966	-0.900362	-2.41936	-0.317677	-0.317677	11	-0.0882436	0	0.0882436	0.000000000000000E+000	0.0882436	0.0000000E+000	0.000000000000000E+000	0.0021783
2	0	0	0	0	0	0	380.674	-0.899966	-0.900324	-2.4064	-0.320088	-0.320088	11	-0.0889134	0	0.0889134	0.000000000000000E+000	0.0889134	0.0000000E+000	0.000000000000000E+000	0.00216654
2	0	0	0	0	0	0	381.674	-0.899966	-0.900382	-2.4145	-0.322502	-0.322502	11	-0.0895839	0	0.0895839	0.000000000000000E+000	0.0895839	0.0000000E+000	0.000000000000000E+000	0.00217397
2	0	0	0	0	0	0	382.674	-0.899966	-0.900401	-2.42364	-0.324915	-0.324915	11	-0.0902543	0	0.0902543	0.000000000000000E+000	0.0902543	0.0000000E+000	0.000000000000000E+000	0.00218225
2	0	0	0	0	0	0	383.674	-0.899966	-0.900229	-2.41126	-0.327329	-0.327329	11	-0.0909248	0	0.0909248	0.000000000000000E+000	0.0909248	0.0000000E+000	0.000000000000000E+000	0.00217068
2	0	0	0	0	0	0	384.674	-0.899966	-0.900324	-2.41273	-0.329745	-0.329745	11	-0.0915957	0	0.0915957	0.000000000000000E+000	0.0915957	0.0000000E+000	0.000000000000000E+000	0.00217224
2	0	0	0	0	0	0	385.674	-0.899966	-0.900362	-2.32477	-0.332145	-0.332145	11	-0.0922624	0	0.0922624	0.000000000000000E+000	0.0922624	0.0000000E+000	0.000000000000000E+000	0.00209314
2	0	0	0	0	0	0	386.674	-0.899966	-0.90042	-1.9587	-0.334257	-0.334257	11	-0.0928493	0	0.0928493	0.000000000000000E+000	0.0928493	0.0000000E+000	0.000000000000000E+000	0.00176366
2	0	0	0	0	0	0	387.674	-0.899966	-0.900362	-1.82765	-0.336128	-0.336128	11	-0.0933688	0	0.0933688	0.000000000000000E+000	0.0933688	0.0000000E+000	0.000000000000000E+000	0.00164555
2	0	0	0	0	0	0	388.674	-0.899966	-0.900439	-1.81701	-0.33795	-0.33795	11	-0.093875	0	0.093875	0.000000000000000E+000	0.093875	0.0000000E+000	0.000000000000000E+000	0.00163611
2	0	0	0	0	0	0	389.674	-0.899966	-0.900382	-1.82288	-0.339769	-0.339769	11	-0.0943802	0	0.0943802	0.000000000000000E+000	0.0943802	0.0000000E+000	0.000000000000000E+000	0.00164128
2	0	0	0	0	0	0	390.674	-0.899966	-0.900305	-1.89576	-0.34163	-0.34163	11	-0.0948971	0	0.0948971	0.000000000000000E+000	0.0948971	0.0000000E+000	0.000000000000000E+000	0.00170676
2	0	0	0	0	0	0	391.674	-0.899966	-0.900286	-2.04434	-0.343592	-0.343592	11	-0.0954423	0	0.0954423	0.000000000000000E+000	0.0954423	0.0000000E+000	0.000000000000000E+000	0.00184049
2	0	0	0	0	0	0	392.674	-0.899966	-0.900305	-2.15843	-0.345707	-0.345707	11	-0.0960296	0	0.0960296	0.000000000000000E+000	0.0960296	0.0000000E+000	0.000000000000000E+000	0.00194325
2	0	0	0	0	0	0	393.674	-0.899966	-0.900439	-2.20171	-0.34789	-0.34789	11	-0.0966361	0	0.0966361	0.000000000000000E+000	0.0966361	0.0000000E+000	0.000000000000000E+000	0.0019825
2	0	0	0	0	0	0	394.674	-0.899966	-0.900362	-2.21434	-0.350097	-0.350097	11	-0.0972492	0	0.0972492	0.000000000000000E+000	0.0972492	0.0000000E+000	0.000000000000000E+000	0.00199371
2	0	0	0	0	0	0	395.674	-0.899966	-0.90042	-2.21392	-0.35231	-0.35231	11	-0.097864	0	0.097864	0.000000000000000E+000	0.097864	0.0000000E+000	0.000000000000000E+000	0.00199346
2	0	0	0	0	0	0	396.674	-0.899966	-0.900343	-2.20771	-0.354526	-0.354526	11	-0.0984795	0	0.0984795	0.000000000000000E+000	0.0984795	0.0000000E+000	0.000000000000000E+000	0.0019877
2	0	0	0	0	0	0	397.674	-0.899966	-0.900496	-2.22552	-0.356745	-0.356745	11	-0.0990959	0	0.0990959	0.000000000000000E+000	0.0990959	0.0000000E+000	0.000000000000000E+000	0.00200407
2	0	0	0	0	0	0	398.674	-0.899966	-0.900362	-2.21948	-0.358964	-0.358964	11	-0.0997122	0	0.0997122	0.000000000000000E+000	0.0997122	0.0000000E+000	0.000000000000000E+000	0.00199834
2	0	0	0	0	0	0	399.674	-0.899966	-0.90042	-2.2142	-0.36118	-0.36118	11	-0.100328	0	0.100328	0.000000000000000E+000	0.100328	0.0000000E+000	0.000000000000000E+000	0.00199371
2	0	0	0	0	0	0	400.674	-0.899966	-0.900401	-2.21679	-0.363393	-0.363393	11	-0.100943	0	0.100943	0.000000000000000E+000	0.100943	0.0000000E+000	0.000000000000000E+000	0.001996
2	0	0	0	0	0	0	401.674	-0.899966	-0.900458	-2.21625	-0.365607	-0.365607	11	-0.101557	0	0.101557	0.000000000000000E+000	0.101557	0.0000000E+000	0.000000000000000E+000	0.00199564
2	0	0	0	0	0	0	402.674	-0.899966	-0.90042	-2.20732	-0.367818	-0.367818	11	-0.102172	0	0.102172	0.000000000000000E+000	0.102172	0.0000000E+000	0.000000000000000E+000	0.00198752
2	0	0	0	0	0	0	403.674	-0.899966	-0.900401	-2.20509	-0.37003	-0.37003	11	-0.102786	0	0.102786	0.000000000000000E+000	0.102786	0.0000000E+000	0.000000000000000E+000	0.00198547
2	0	0	0	0	0	0	404.674	-0.899966	-0.900496	-2.22184	-0.372246	-0.372246	11	-0.103402	0	0.103402	0.000000000000000E+000	0.103402	0.0000000E+000	0.000000000000000E+000	0.00200076
2	0	0	0	0	0	0	405.674	-0.899966	-0.900496	-2.214	-0.37446	-0.37446	11	-0.104017	0	0.104017	0.000000000000000E+000	0.104017	0.0000000E+000	0.000000000000000E+000	0.0019937
2	0	0	0	0	0	0	406.674	-0.899966	-0.900343	-2.20933	-0.376674	-0.376674	11	-0.104632	0	0.104632	0.000000000000000E+000	0.104632	0.0000000E+000	0.000000000000000E+000	0.00198915
2	0	0	0	0	0	0	407.674	-0.899966	-0.900477	-2.22094	-0.378888	-0.378888	11	-0.105247	0	0.105247	0.000000000000000E+000	0.105247	0.0000000E+000	0.000000000000000E+000	0.00199991
2	0	0	0	0	0	0	408.674	-0.899966	-0.900362	-2.21922	-0.381104	-0.381104	11	-0.105862	0	0.105862	0.000000000000000E+000	0.105862	0.0000000E+000	0.000000000000000E+000	0.00199811
2	0	0	0	0	0	0	409.674	-0.899966	-0.900458	-2.21145	-0.383318	-0.383318	11	-0.106477	0	0.106477	0.000000000000000E+000	0.106477	0.0000000E+000	0.000000000000000E+000	0.00199131
2	0	0	0	0	0	0	410.674	-0.899966	-0.900362	-2.20662	-0.385531	-0.385531	11	-0.107092	0	0.107092	0.000000000000000E+000	0.107092	0.0000000E+000	0.000000000000000E+000	0.00198676
2	0	0	0	0	0	0	411.674	-0.899966	-0.900439	-2.224	-0.387747	-0.387747	11	-0.107707	0	0.107707	0.000000000000000E+000	0.107707	0.0000000E+000	0.000000000000000E+000	0.00200257
2	0	0	0	0	0	0	412.674	-0.899966	-0.900362	-2.21796	-0.389963	-0.389963	11	-0.108323	0	0.108323	0.000000000000000E+000	0.108323	0.0000000E+000	0.000000000000000E+000	0.00199696
2	0	0	0	0	0	0	413.674	-0.899966	-0.900401	-2.59943	-0.392325	-0.392325	11	-0.108979	0	0.108979	0.000000000000000E+000	0.108979	0.0000000E+000	0.000000000000000E+000	0.00234053
2	0	0	0	0	0	0	414.674	-0.899966	-0.900286	-2.74319	-0.395035	-0.395035	11	-0.109732	0	0.109732	0.000000000000000E+000	0.109732	0.0000000E+000	0.000000000000000E+000	0.00246965
2	0	0	0	0	0	0	415.674	-0.899966	-0.900286	-2.68711	-0.397766	-0.397766	11	-0.110491	0	0.110491	0.000000000000000E+000	0.110491	0.0000000E+000	0.000000000000000E+000	0.00241916
2	0	0	0	0	0	0	416.674	-0.899966	-0.900343	-2.53692	-0.400384	-0.400384	11	-0.111218	0	0.111218	0.000000000000000E+000	0.111218	0.0000000E+000	0.000000000000000E+000	0.0022841
2	0	0	0	0	0	0	417.674	-0.899966	-0.900362	-2.45977	-0.402866	-0.402866	11	-0.111907	0	0.111907	0.000000000000000E+000	0.111907	0.0000000E+000	0.000000000000000E+000	0.00221469
2	0	0	0	0	0	0	418.674	-0.899966	-0.900229	-2.40714	-0.405293	-0.405293	11	-0.112581	0	0.112581	0.000000000000000E+000	0.112581	0.0000000E+000	0.000000000000000E+000	0.00216698
2	0	0	0	0	0	0	419.674	-0.899966	-0.900477	-2.40982	-0.407708	-0.407708	11	-0.113252	0	0.113252	0.000000000000000E+000	0.113252	0.0000000E+000	0.000000000000000E+000	0.00216999
2	0	0	0	0	0	0	420.674	-0.899966	-0.900382	-2.41803	-0.410115	-0.410115	11	-0.113921	0	0.113921	0.000000000000000E+000	0.113921	0.0000000E+000	0.000000000000000E+000	0.00217715
2	0	0	0	0	0	0	421.674	-0.899966	-0.900324	-2.39488	-0.412522	-0.412522	11	-0.114589	0	0.114589	0.000000000000000E+000	0.114589	0.0000000E+000	0.000000000000000E+000	0.00215617
2	0	0	0	0	0	0	422.674	-0.899966	-0.900362	-2.41351	-0.41493	-0.41493	11	-0.115258	0	0.115258	0.000000000000000E+000	0.115258	0.0000000E+000	0.000000000000000E+000	0.00217304
2	0	0	0	0	0	0	423.674	-0.899966	-0.900305	-2.40837	-0.417333	-0.417333	11	-0.115926	0	0.115926	0.000000000000000E+000	0.115926	0.0000000E+000	0.000000000000000E+000	0.00216827
2	0	0	0	0	0	0	424.674	-0.899966	-0.900343	-2.39805	-0.419739	-0.419739	11	-0.116594	0	0.116594	0.000000000000000E+000	0.116594	0.0000000E+000	0.000000000000000E+000	0.00215907
2	0	0	0	0	0	0	425.674	-0.899966	-0.900477	-2.41347	-0.422143	-0.422143	11	-0.117262	0	0.117262	0.000000000000000E+000	0.117262	0.0000000E+000	0.000000000000000E+000	0.00217327
2	0	0	0	0	0	0	426.674	-0.899966	-0.900305	-2.39482	-0.424544	-0.424544	11	-0.117929	0	0.117929	0.000000000000000E+000	0.117929	0.0000000E+000	0.000000000000000E+000	0.00215607
2	0	0	0	0	0	0	427.674	-0.899966	-0.900305	-2.49918	-0.42699	-0.42699	11	-0.118608	0	0.118608	0.000000000000000E+000	0.118608	0.0000000E+000	0.000000000000000E+000	0.00225003
2	0	0	0	0	0	0	428.674	-0.899966	-0.900343	-2.64102	-0.429574	-0.429574	11	-0.119326	0	0.119326	0.000000000000000E+000	0.119326	0.0000000E+000	0.000000000000000E+000	0.00237782
2	0	0	0	0	0	0	429.674	-0.899966	-0.900496	-2.65952	-0.432221	-0.432221	11	-0.120061	0	0.120061	0.000000000000000E+000	0.120061	0.0000000E+000	0.000000000000000E+000	0.00239489
2	0	0	0	0	0	0	430.674	-0.899966	-0.90021	-2.65383	-0.434882	-0.434882	11	-0.1208	0	0.1208	0.000000000000000E+000	0.1208	0.0000000E+000	0.000000000000000E+000	0.00238901
2	0	0	0	0	0	0	431.674	-0.899966	-0.900401	-2.66775	-0.437545	-0.437545	11	-0.12154	0	0.12154	0.000000000000000E+000	0.12154	0.0000000E+000	0.000000000000000E+000	0.00240204
2	0	0	0	0	0	0	432.674	-0.899966	-0.900401	-2.66818	-0.440211	-0.440211	11	-0.122281	0	0.122281	0.000000000000000E+000	0.122281	0.0000000E+000	0.000000000000000E+000	0.00240244
2	0	0	0	0	0	0	433.674	-0.899966	-0.900458	-2.65365	-0.442872	-0.442872	11	-0.12302	0	0.12302	0.000000000000000E+000	0.12302	0.0000000E+000	0.000000000000000E+000	0.0023895
2	0	0	0	0	0	0	434.674	-0.899966	-0.900362	-2.65305	-0.445534	-0.445534	11	-0.123759	0	0.123759	0.000000000000000E+000	0.123759	0.0000000E+000	0.000000000000000E+000	0.00238871
2	0	0	0	0	0	0	435.674	-0.899966	-0.900477	-2.67421	-0.448196	-0.448196	11	-0.124499	0	0.124499	0.000000000000000E+000	0.124499	0.0000000E+000	0.000000000000000E+000	0.00240806
2	0	0	0	0	0	0	436.674	-0.899966	-0.900382	-2.65424	-0.450854	-0.450854	11	-0.125237	0	0.125237	0.000000000000000E+000	0.125237	0.0000000E+000	0.000000000000000E+000	0.00238983
2	0	0	0	0	0	0	437.674	-0.899966	-0.900267	-3.12455	-0.45377	-0.45377	11	-0.126047	0	0.126047	0.000000000000000E+000	0.126047	0.0000000E+000	0.000000000000000E+000	0.00281293
2	0	0	0	0	0	0	438.674	-0.899966	-0.900343	-3.01716	-0.456842	-0.456842	11	-0.1269	0	0.1269	0.000000000000000E+000	0.1269	0.0000000E+000	0.000000000000000E+000	0.00271648
2	0	0	0	0	0	0	439.674	-0.899966	-0.900439	-2.97029	-0.459822	-0.459822	11	-0.127728	0	0.127728	0.000000000000000E+000	0.127728	0.0000000E+000	0.000000000000000E+000	0.00267456
2	0	0	0	0	0	0	440.674	-0.899966	-0.900534	-2.9534	-0.462786	-0.462786	11	-0.128552	0	0.128552	0.000000000000000E+000	0.128552	0.0000000E+000	0.000000000000000E+000	0.00265964
2	0	0	0	0	0	0	441.674	-0.899966	-0.90042	-2.96936	-0.465746	-0.465746	11	-0.129374	0	0.129374	0.000000000000000E+000	0.129374	0.0000000E+000	0.000000000000000E+000	0.00267367
2	0	0	0	0	0	0	442.674	-0.899966	-0.900439	-2.95166	-0.468702	-0.468702	11	-0.130195	0	0.130195	0.000000000000000E+000	0.130195	0.0000000E+000	0.000000000000000E+000	0.00265779
2	0	0	0	0	0	0	443.674	-0.899966	-0.900343	-2.95373	-0.471662	-0.471662	11	-0.131017	0	0.131017	0.000000000000000E+000	0.131017	0.0000000E+000	0.000000000000000E+000	0.00265937
2	0	0	0	0	0	0	444.674	-0.899966	-0.900267	-2.97752	-0.474624	-0.474624	11	-0.13184	0	0.13184	0.000000000000000E+000	0.13184	0.0000000E+000	0.000000000000000E+000	0.00268056
2	0	0	0	0	0	0	445.674	-0.899966	-0.900458	-2.95146	-0.477584	-0.477584	11	-0.132662	0	0.132662	0.000000000000000E+000	0.132662	0.0000000E+000	0.000000000000000E+000	0.00265766
2	0	0	0	0	0	0	446.674	-0.899966	-0.900477	-2.95551	-0.480545	-0.480545	11	-0.133485	0	0.133485	0.000000000000000E+000	0.133485	0.0000000E+000	0.000000000000000E+000	0.00266137
2	0	0	0	0	0	0	447.674	-0.899966	-0.900267	-2.9749	-0.483504	-0.483504	11	-0.134307	0	0.134307	0.000000000000000E+000	0.134307	0.0000000E+000	0.000000000000000E+000	0.0026782
2	0	0	0	0	0	0	448.674	-0.899966	-0.900305	-2.94278	-0.486462	-0.486462	11	-0.135128	0	0.135128	0.000000000000000E+000	0.135128	0.0000000E+000	0.000000000000000E+000	0.0026494
2	0	0	0	0	0	0	449.674	-0.899966	-0.900401	-2.96059	-0.489423	-0.489423	11	-0.135951	0	0.135951	0.000000000000000E+000	0.135951	0.0000000E+000	0.000000000000000E+000	0.00266572
2	0	0	0	0	0	0	450.674	-0.899966	-0.900362	-3.1352	-0.492486	-0.492486	11	-0.136802	0	0.136802	0.000000000000000E+000	0.136802	0.0000000E+000	0.000000000000000E+000	0.00282281
2	0	0	0	0	0	0	451.674	-0.899966	-0.900305	-3.17079	-0.49565	-0.49565	11	-0.137681	0	0.137681	0.000000000000000E+000	0.137681	0.0000000E+000	0.000000000000000E+000	0.00285468
2	0	0	0	0	0	0	452.674	-0.899966	-0.900496	-3.16174	-0.498818	-0.498818	11	-0.138561	0	0.138561	0.000000000000000E+000	0.138561	0.0000000E+000	0.000000000000000E+000	0.00284713
2	0	0	0	0	0	0	453.674	-0.899966	-0.900458	-3.17754	-0.501988	-0.501988	11	-0.139441	0	0.139441	0.000000000000000E+000	0.139441	0.0000000E+000	0.000000000000000E+000	0.00286124
2	0	0	0	0	0	0	454.674	-0.899966	-0.900553	-3.16245	-0.505157	-0.505157	11	-0.140321	0	0.140321	0.000000000000000E+000	0.140321	0.0000000E+000	0.000000000000000E+000	0.00284796
2	0	0	0	0	0	0	455.674	-0.899966	-0.900458	-3.17399	-0.508325	-0.508325	11	-0.141201	0	0.141201	0.000000000000000E+000	0.141201	0.0000000E+000	0.000000000000000E+000	0.00285804
2	0	0	0	0	0	0	456.674	-0.899966	-0.90021	-3.16564	-0.511492	-0.511492	11	-0.142081	0	0.142081	0.000000000000000E+000	0.142081	0.0000000E+000	0.000000000000000E+000	0.00284974
2	0	0	0	0	0	0	457.674	-0.899966	-0.900439	-3.17374	-0.514661	-0.514661	11	-0.142961	0	0.142961	0.000000000000000E+000	0.142961	0.0000000E+000	0.000000000000000E+000	0.00285775
2	0	0	0	0	0	0	458.674	-0.899966	-0.90042	-3.16522	-0.517828	-0.517828	11	-0.143841	0	0.143841	0.000000000000000E+000	0.143841	0.0000000E+000	0.000000000000000E+000	0.00285003
2	0	0	0	0	0	0	459.674	-0.899966	-0.900286	-3.16378	-0.520992	-0.520992	11	-0.14472	0	0.14472	0.000000000000000E+000	0.14472	0.0000000E+000	0.000000000000000E+000	0.0028483
2	0	0	0	0	0	0	460.674	-0.899966	-0.900267	-3.15594	-0.524154	-0.524154	11	-0.145598	0	0.145598	0.000000000000000E+000	0.145598	0.0000000E+000	0.000000000000000E+000	0.00284119
2	0	0	0	0	0	0	461.674	-0.899966	-0.900286	-3.16424	-0.527315	-0.527315	11	-0.146476	0	0.146476	0.000000000000000E+000	0.146476	0.0000000E+000	0.000000000000000E+000	0.00284872
2	0	0	0	0	0	0	462.674	-0.899966	-0.900191	-3.33339	-0.530541	-0.530541	11	-0.147372	0	0.147372	0.000000000000000E+000	0.147372	0.0000000E+000	0.000000000000000E+000	0.00300069
2	0	0	0	0	0	0	463.674	-0.899966	-0.900248	-3.40456	-0.533939	-0.533939	11	-0.148316	0	0.148316	0.000000000000000E+000	0.148316	0.0000000E+000	0.000000000000000E+000	0.00306494
2	0	0	0	0	0	0	464.674	-0.899966	-0.900401	-3.40628	-0.537345	-0.537345	11	-0.149262	0	0.149262	0.000000000000000E+000	0.149262	0.0000000E+000	0.000000000000000E+000	0.00306702
2	0	0	0	0	0	0	465.674	-0.899966	-0.900401	-3.40934	-0.540753	-0.540753	11	-0.150209	0	0.150209	0.000000000000000E+000	0.150209	0.0000000E+000	0.000000000000000E+000	0.00306977
2	0	0	0	0	0	0	466.674	-0.899966	-0.900267	-3.40575	-0.54416	-0.54416	11	-0.151156	0	0.151156	0.000000000000000E+000	0.151156	0.0000000E+000	0.000000000000000E+000	0.00306608
2	0	0	0	0	0	0	467.674	-0.899966	-0.900573	-3.40448	-0.547563	-0.547563	11	-0.152101	0	0.152101	0.000000000000000E+000	0.152101	0.0000000E+000	0.000000000000000E+000	0.00306598
2	0	0	0	0	0	0	468.674	-0.899966	-0.900515	-3.40093	-0.550963	-0.550963	11	-0.153045	0	0.153045	0.000000000000000E+000	0.153045	0.0000000E+000	0.000000000000000E+000	0.00306259
2	0	0	0	0	0	0	469.674	-0.899966	-0.900324	-3.39989	-0.554364	-0.554364	11	-0.15399	0	0.15399	0.000000000000000E+000	0.15399	0.0000000E+000	0.000000000000000E+000	0.003061
2	0	0	0	0	0	0	470.674	-0.899966	-0.900477	-3.40155	-0.557763	-0.557763	11	-0.154934	0	0.154934	0.000000000000000E+000	0.154934	0.0000000E+000	0.000000000000000E+000	0.00306302
2	0	0	0	0	0	0	471.674	-0.899966	-0.900324	-3.3985	-0.561162	-0.561162	11	-0.155878	0	0.155878	0.000000000000000E+000	0.155878	0.0000000E+000	0.000000000000000E+000	0.00305976
2	0	0	0	0	0	0	472.674	-0.899966	-0.900324	-3.39591	-0.56456	-0.56456	11	-0.156822	0	0.156822	0.000000000000000E+000	0.156822	0.0000000E+000	0.000000000000000E+000	0.00305742
2	0	0	0	0	0	0	473.674	-0.899966	-0.900362	-3.39367	-0.567955	-0.567955	11	-0.157765	0	0.157765	0.000000000000000E+000	0.157765	0.0000000E+000	0.000000000000000E+000	0.00305554
2	0	0	0	0	0	0	474.674	-0.899966	-0.900592	-3.38636	-0.571345	-0.571345	11	-0.158707	0	0.158707	0.000000000000000E+000	0.158707	0.0000000E+000	0.000000000000000E+000	0.00304973
2	0	0	0	0	0	0	475.674	-0.899966	-0.900229	-3.4727	-0.574776	-0.574776	11	-0.15966	0	0.15966	0.000000000000000E+000	0.15966	0.0000000E+000	0.000000000000000E+000	0.00312623
2	0	0	0	0	0	0	476.674	-0.899966	-0.900362	-3.48997	-0.578266	-0.578266	11	-0.160629	0	0.160629	0.000000000000000E+000	0.160629	0.0000000E+000	0.000000000000000E+000	0.00314224
2	0	0	0	0	0	0	477.674	-0.899966	-0.900267	-3.49087	-0.581751	-0.581751	11	-0.161598	0	0.161598	0.000000000000000E+000	0.161598	0.0000000E+000	0.000000000000000E+000	0.00314271
2	0	0	0	0	0	0	478.674	-0.899966	-0.900172	-3.48792	-0.585236	-0.585236	11	-0.162565	0	0.162565	0.000000000000000E+000	0.162565	0.0000000E+000	0.000000000000000E+000	0.00313972
2	0	0	0	0	0	0	479.674	-0.899966	-0.900382	-3.4881	-0.588718	-0.588718	11	-0.163533	0	0.163533	0.000000000000000E+000	0.163533	0.0000000E+000	0.000000000000000E+000	0.00314062
2	0	0	0	0	0	0	480.674	-0.899966	-0.900439	-3.47922	-0.592199	-0.592199	11	-0.1645	0	0.1645	0.000000000000000E+000	0.1645	0.0000000E+000	0.000000000000000E+000	0.00313282
2	0	0	0	0	0	0	481.674	-0.899966	-0.900515	-3.47767	-0.595678	-0.595678	11	-0.165466	0	0.165466	0.000000000000000E+000	0.165466	0.0000000E+000	0.000000000000000E+000	0.00313169
2	0	0	0	0	0	0	482.674	-0.899966	-0.900324	-3.479	-0.599158	-0.599158	11	-0.166433	0	0.166433	0.000000000000000E+000	0.166433	0.0000000E+000	0.000000000000000E+000	0.00313223
2	0	0	0	0	0	0	483.674	-0.899966	-0.900362	-3.47728	-0.602639	-0.602639	11	-0.1674	0	0.1674	0.000000000000000E+000	0.1674	0.0000000E+000	0.000000000000000E+000	0.00313081
2	0	0	0	0	0	0	484.674	-0.899966	-0.900553	-3.47077	-0.606115	-0.606115	11	-0.168365	0	0.168365	0.000000000000000E+000	0.168365	0.0000000E+000	0.000000000000000E+000	0.00312561
2	0	0	0	0	0	0	485.674	-0.899966	-0.900324	-3.4691	-0.60959	-0.60959	11	-0.16933	0	0.16933	0.000000000000000E+000	0.16933	0.0000000E+000	0.000000000000000E+000	0.00312332
2	0	0	0	0	0	0	486.674	-0.899966	-0.900286	-3.61631	-0.613122	-0.613122	11	-0.170312	0	0.170312	0.000000000000000E+000	0.170312	0.0000000E+000	0.000000000000000E+000	0.00325571
2	0	0	0	0	0	0	487.674	-0.899966	-0.900401	-3.58493	-0.616722	-0.616722	11	-0.171312	0	0.171312	0.000000000000000E+000	0.171312	0.0000000E+000	0.000000000000000E+000	0.00322787
2	0	0	0	0	0	0	488.674	-0.899966	-0.900095	-3.5806	-0.620307	-0.620307	11	-0.172308	0	0.172308	0.000000000000000E+000	0.172308	0.0000000E+000	0.000000000000000E+000	0.00322288
2	0	0	0	0	0	0	489.674	-0.899966	-0.900286	-3.57915	-0.623884	-0.623884	11	-0.173301	0	0.173301	0.000000000000000E+000	0.173301	0.0000000E+000	0.000000000000000E+000	0.00322226
2	0	0	0	0	0	0	490.674	-0.899966	-0.900496	-3.57828	-0.62746	-0.62746	11	-0.174295	0	0.174295	0.000000000000000E+000	0.174295	0.0000000E+000	0.000000000000000E+000	0.00322223
2	0	0	0	0	0	0	491.674	-0.899966	-0.90021	-3.57317	-0.631035	-0.631035	11	-0.175288	0	0.175288	0.000000000000000E+000	0.175288	0.0000000E+000	0.000000000000000E+000	0.0032166
2	0	0	0	0	0	0	492.674	-0.899966	-0.900286	-3.57671	-0.634611	-0.634611	11	-0.176281	0	0.176281	0.000000000000000E+000	0.176281	0.0000000E+000	0.000000000000000E+000	0.00322006
2	0	0	0	0	0	0	493.674	-0.899966	-0.900573	-3.57745	-0.638187	-0.638187	11	-0.177274	0	0.177274	0.000000000000000E+000	0.177274	0.0000000E+000	0.000000000000000E+000	0.00322176
2	0	0	0	0	0	0	494.674	-0.899966	-0.900305	-3.57291	-0.64176	-0.64176	11	-0.178267	0	0.178267	0.000000000000000E+000	0.178267	0.0000000E+000	0.000000000000000E+000	0.00321671
2	0	0	0	0	0	0	495.674	-0.899966	-0.900534	-3.57622	-0.645333	-0.645333	11	-0.179259	0	0.179259	0.000000000000000E+000	0.179259	0.0000000E+000	0.000000000000000E+000	0.00322051
2	0	0	0	0	0	0	496.674	-0.899966	-0.900362	-3.56951	-0.648903	-0.648903	11	-0.180251	0	0.180251	0.000000000000000E+000	0.180251	0.0000000E+000	0.000000000000000E+000	0.00321386
2	0	0	0	0	0	0	497.674	-0.899966	-0.900515	-3.5656	-0.652472	-0.652472	11	-0.181242	0	0.181242	0.000000000000000E+000	0.181242	0.0000000E+000	0.000000000000000E+000	0.00321088
2	0	0	0	0	0	0	498.674	-0.899966	-0.900553	-3.56816	-0.656039	-0.656039	11	-0.182233	0	0.182233	0.000000000000000E+000	0.182233	0.0000000E+000	0.000000000000000E+000	0.00321332
2	0	0	0	0	0	0	499.674	-0.899966	-0.900458	-3.56398	-0.659605	-0.659605	11	-0.183224	0	0.183224	0.000000000000000E+000	0.183224	0.0000000E+000	0.000000000000000E+000	0.00320921
2	0	0	0	0	0	0	500.674	-0.899966	-0.90042	-3.55767	-0.663167	-0.663167	11	-0.184213	0	0.184213	0.000000000000000E+000	0.184213	0.0000000E+000	0.000000000000000E+000	0.0032034
2	0	0	0	0	0	0	501.674	-0.899966	-0.900191	-3.5615	-0.666728	-0.666728	11	-0.185202	0	0.185202	0.000000000000000E+000	0.185202	0.0000000E+000	0.000000000000000E+000	0.00320603
2	0	0	0	0	0	0	502.674	-0.899966	-0.900286	-3.56175	-0.670288	-0.670288	11	-0.186191	0	0.186191	0.000000000000000E+000	0.186191	0.0000000E+000	0.000000000000000E+000	0.00320659
2	0	0	0	0	0	0	503.674	-0.899966	-0.90021	-3.5553	-0.673847	-0.673847	11	-0.18718	0	0.18718	0.000000000000000E+000	0.18718	0.0000000E+000	0.000000000000000E+000	0.00320051
2	0	0	0	0	0	0	504.674	-0.899966	-0.900553	-3.56278	-0.677408	-0.677408	11	-0.188169	0	0.188169	0.000000000000000E+000	0.188169	0.0000000E+000	0.000000000000000E+000	0.00320847
2	0	0	0	0	0	0	505.674	-0.899966	-0.900534	-3.55802	-0.680965	-0.680965	11	-0.189157	0	0.189157	0.000000000000000E+000	0.189157	0.0000000E+000	0.000000000000000E+000	0.00320412
2	0	0	0	0	0	0	506.674	-0.899966	-0.90042	-3.55309	-0.684523	-0.684523	11	-0.190145	0	0.190145	0.000000000000000E+000	0.190145	0.0000000E+000	0.000000000000000E+000	0.00319928
2	0	0	0	0	0	0	507.674	-0.899966	-0.900744	-3.55492	-0.68808	-0.68808	11	-0.191133	0	0.191133	0.000000000000000E+000	0.191133	0.0000000E+000	0.000000000000000E+000	0.00320207
2	0	0	0	0	0	0	508.674	-0.899966	-0.900458	-3.55665	-0.691636	-0.691636	11	-0.192121	0	0.192121	0.000000000000000E+000	0.192121	0.0000000E+000	0.000000000000000E+000	0.00320261
2	0	0	0	0	0	0	509.674	-0.899966	-0.900401	-3.55381	-0.69519	-0.69519	11	-0.193108	0	0.193108	0.000000000000000E+000	0.193108	0.0000000E+000	0.000000000000000E+000	0.00319985
2	0	0	0	0	0	0	510.674	-0.899966	-0.900477	-3.55307	-0.698745	-0.698745	11	-0.194096	0	0.194096	0.000000000000000E+000	0.194096	0.0000000E+000	0.000000000000000E+000	0.00319946
2	0	0	0	0	0	0	511.674	-0.899966	-0.900458	-3.55663	-0.702299	-0.702299	11	-0.195083	0	0.195083	0.000000000000000E+000	0.195083	0.0000000E+000	0.000000000000000E+000	0.0032026
2	0	0	0	0	0	0	512.674	-0.899966	-0.900592	-3.552	-0.70585	-0.70585	11	-0.19607	0	0.19607	0.000000000000000E+000	0.19607	0.0000000E+000	0.000000000000000E+000	0.0031989
2	0	0	0	0	0	0	513.674	-0.899966	-0.900458	-3.54714	-0.709401	-0.709401	11	-0.197056	0	0.197056	0.000000000000000E+000	0.197056	0.0000000E+000	0.000000000000000E+000	0.00319405
2	0	0	0	0	0	0	514.674	-0.899966	-0.900458	-3.54893	-0.71295	-0.71295	11	-0.198042	0	0.198042	0.000000000000000E+000	0.198042	0.0000000E+000	0.000000000000000E+000	0.00319566
2	0	0	0	0	0	0	515.674	-0.899966	-0.900477	-3.54639	-0.716495	-0.716495	11	-0.199026	0	0.199026	0.000000000000000E+000	0.199026	0.0000000E+000	0.000000000000000E+000	0.00319344
2	0	0	0	0	0	0	516.674	-0.899966	-0.900592	-3.61842	-0.720066	-0.720066	11	-0.200018	0	0.200018	0.000000000000000E+000	0.200018	0.0000000E+000	0.000000000000000E+000	0.00325872
2	0	0	0	0	0	0	517.674	-0.899966	-0.900382	-3.60698	-0.723676	-0.723676	11	-0.201021	0	0.201021	0.000000000000000E+000	0.201021	0.0000000E+000	0.000000000000000E+000	0.00324766
2	0	0	0	0	0	0	518.674	-0.899966	-0.900267	-3.60346	-0.72728	-0.72728	11	-0.202022	0	0.202022	0.000000000000000E+000	0.202022	0.0000000E+000	0.000000000000000E+000	0.00324408
2	0	0	0	0	0	0	519.674	-0.899966	-0.900362	-3.60555	-0.730884	-0.730884	11	-0.203023	0	0.203023	0.000000000000000E+000	0.203023	0.0000000E+000	0.000000000000000E+000	0.0032463
2	0	0	0	0	0	0	520.674	-0.899966	-0.900267	-3.60379	-0.734489	-0.734489	11	-0.204025	0	0.204025	0.000000000000000E+000	0.204025	0.0000000E+000	0.000000000000000E+000	0.00324437
2	0	0	0	0	0	0	521.674	-0.899966	-0.900382	-3.5971	-0.73809	-0.73809	11	-0.205025	0	0.205025	0.000000000000000E+000	0.205025	0.0000000E+000	0.000000000000000E+000	0.00323876
2	0	0	0	0	0	0	522.674	-0.899966	-0.90042	-3.59936	-0.741687	-0.741687	11	-0.206024	0	0.206024	0.000000000000000E+000	0.206024	0.0000000E+000	0.000000000000000E+000	0.00324094
2	0	0	0	0	0	0	523.674	-0.899966	-0.900553	-3.59141	-0.745281	-0.745281	11	-0.207022	0	0.207022	0.000000000000000E+000	0.207022	0.0000000E+000	0.000000000000000E+000	0.00323426
2	0	0	0	0	0	0	524.674	-0.899966	-0.900439	-3.59019	-0.748872	-0.748872	11	-0.20802	0	0.20802	0.000000000000000E+000	0.20802	0.0000000E+000	0.000000000000000E+000	0.00323275
2	0	0	0	0	0	0	525.674	-0.899966	-0.900362	-3.59025	-0.752461	-0.752461	11	-0.209017	0	0.209017	0.000000000000000E+000	0.209017	0.0000000E+000	0.000000000000000E+000	0.00323252
2	0	0	0	0	0	0	526.674	-0.899966	-0.90021	-3.58374	-0.756046	-0.756046	11	-0.210013	0	0.210013	0.000000000000000E+000	0.210013	0.0000000E+000	0.000000000000000E+000	0.00322612
2	0	0	0	0	0	0	527.674	-0.899966	-0.900477	-3.58223	-0.759628	-0.759628	11	-0.211008	0	0.211008	0.000000000000000E+000	0.211008	0.0000000E+000	0.000000000000000E+000	0.00322571
2	0	0	0	0	0	0	528.674	-0.899966	-0.900496	-3.58405	-0.763211	-0.763211	11	-0.212003	0	0.212003	0.000000000000000E+000	0.212003	0.0000000E+000	0.000000000000000E+000	0.00322743
2	0	0	0	0	0	0	529.674	-0.899966	-0.900783	-3.57697	-0.766792	-0.766792	11	-0.212998	0	0.212998	0.000000000000000E+000	0.212998	0.0000000E+000	0.000000000000000E+000	0.00322207
2	0	0	0	0	0	0	530.674	-0.899966	-0.900114	-3.5794	-0.770372	-0.770372	11	-0.213992	0	0.213992	0.000000000000000E+000	0.213992	0.0000000E+000	0.000000000000000E+000	0.00322187
2	0	0	0	0	0	0	531.674	-0.899966	-0.900076	-3.57903	-0.773949	-0.773949	11	-0.214986	0	0.214986	0.000000000000000E+000	0.214986	0.0000000E+000	0.000000000000000E+000	0.0032214
2	0	0	0	0	0	0	532.674	-0.899966	-0.900324	-3.57536	-0.777528	-0.777528	11	-0.21598	0	0.21598	0.000000000000000E+000	0.21598	0.0000000E+000	0.000000000000000E+000	0.00321899
2	0	0	0	0	0	0	533.674	-0.899966	-0.900553	-3.5754	-0.781105	-0.781105	11	-0.216974	0	0.216974	0.000000000000000E+000	0.216974	0.0000000E+000	0.000000000000000E+000	0.00321984
2	0	0	0	0	0	0	534.674	-0.899966	-0.900305	-3.491	-0.784642	-0.784642	11	-0.217956	0	0.217956	0.000000000000000E+000	0.217956	0.0000000E+000	0.000000000000000E+000	0.00314296
2	0	0	0	0	0	0	535.674	-0.899966	-0.900382	-3.50725	-0.788147	-0.788147	11	-0.21893	0	0.21893	0.000000000000000E+000	0.21893	0.0000000E+000	0.000000000000000E+000	0.00315787
2	0	0	0	0	0	0	536.674	-0.899966	-0.900553	-3.50797	-0.791654	-0.791654	11	-0.219904	0	0.219904	0.000000000000000E+000	0.219904	0.0000000E+000	0.000000000000000E+000	0.00315911
2	0	0	0	0	0	0	537.674	-0.899966	-0.900515	-3.50371	-0.79516	-0.79516	11	-0.220878	0	0.220878	0.000000000000000E+000	0.220878	0.0000000E+000	0.000000000000000E+000	0.00315515
2	0	0	0	0	0	0	538.378	-0.899966	-0.900362	-3.49506	-0.797629	-0.797629	11	-0.221564	0	0.221564	0.000000000000000E+000	0.221564	0.0000000E+000	0.000000000000000E+000	0.00314682