File: ZnPVAGAECH_08 03-23-22-ZnPVAGA ECH KL 100-1600 rpm at -0_8V vs RHE RDE3_03_CA_C05.mpt
EC-Lab ASCII FILE
Nb header lines : 69

Chronoamperometry / Chronocoulometry

Run on channel : 5 (SN 6729)
User :
CE vs. WE compliance from -10 V to 10 V
Electrode connection : standard
Potential control : Ewe
Ewe ctrl range : min = -2.50 V, max = 2.50 V
Safety Limits :
	Do not start on E overload
Acquisition started on : 03/23/2022 16:30:39.099
Technique started on : 03/23/2022 16:33:42.595
Loaded Setting File :  NONE
Saved on :
	File : 03-23-22-ZnPVAGA  ECH KL 100-1600 rpm at -0_8V vs RHE RDE3_03_CA_C05.mpr
	Directory : \\research-scb.egr.msu.edu\research-scb\Mindy\Koutecky Levich\Zn GA PVA 001\ECH\03-23-22\
	Host : 35.9.136.210
Device : VSP (SN 0012)
Address : 35.9.137.65
EC-Lab for windows v11.43 (software)
Internet server v11.40 (firmware)
Command interpretor v11.40 (firmware)
Electrode material : Au/Pd
Initial state :
Electrolyte : NaCl (0.2M)
Comments : Fe(CN)63-/Fe(CN)64- 5.10-3 M
Reference electrode : SCE Saturated Calomel Electrode (0.241 V)
Electrode surface area : 0.196 cm²
Characteristic mass : 0.001 g
Equivalent Weight : 0.000 g/eq.
Density : 0.000 g/cm3
Volume (V) : 0.001 cm³
Cycle Definition : Charge/Discharge alternance
Ei (V)              -0.700
vs.                 Ref
ti (h:m:s)          0:30:0.0000
Imax                pass
unit Imax           mA
Imin                pass
unit Imin           mA
dQM                 0.000
unit dQM            mA.h
record              <I>
dI                  5.000
unit dI             µA
dQ                  0.000
unit dQ             mA.h
dt (s)              0.1000
dta (s)             0.1000
E range min (V)     -2.500
E range max (V)     2.500
I Range             Auto
I Range min         Unset
I Range max         Unset
I Range init        Unset
Bandwidth           5
goto Ns'            0
nc cycles           0

Modify on : 03/23/2022 16:33
Ei (V)              -1.000

Modify on : 03/23/2022 16:35
Ei (V)              -0.900

mode	ox/red	error	control changes	Ns changes	counter inc.	Ns	time/s	control/V	Ewe/V	<I>/mA	dQ/C	(Q-Qo)/C	I Range	Q charge/discharge/mA.h	half cycle	Q discharge/mA.h	Q charge/mA.h	Capacity/mA.h	Efficiency/%	cycle number	P/W
2	0	0	1	0	0	0	183.496	-1.00001	-1.00034	-2.30313	-0.000102654	-0.000102654	11	-2.85149e-05	0	2.85149e-05	0.000000000000000E+000	2.85149e-05	0.0000000E+000	0.000000000000000E+000	0.00230392
2	0	0	1	0	0	0	184.696	-1.00001	-1.00034	-1.89775	-0.00243259	-0.00243259	11	-0.000675719	0	0.000675719	0.000000000000000E+000	0.000675719	0.0000000E+000	0.000000000000000E+000	0.00189841
2	0	0	1	0	0	0	185.896	-1.00001	-1.00013	-1.88864	-0.00470608	-0.00470608	11	-0.00130724	0	0.00130724	0.000000000000000E+000	0.00130724	0.0000000E+000	0.000000000000000E+000	0.00188889
2	0	0	1	0	0	0	187.096	-1.00001	-1.00023	-1.89055	-0.00697404	-0.00697404	11	-0.00193723	0	0.00193723	0.000000000000000E+000	0.00193723	0.0000000E+000	0.000000000000000E+000	0.00189098
2	0	0	1	0	0	0	188.296	-1.00001	-1.00032	-1.89209	-0.009247	-0.009247	11	-0.00256861	0	0.00256861	0.000000000000000E+000	0.00256861	0.0000000E+000	0.000000000000000E+000	0.00189271
2	0	0	1	0	0	0	189.496	-1.00001	-1.00029	-1.89843	-0.0115259	-0.0115259	11	-0.00320163	0	0.00320163	0.000000000000000E+000	0.00320163	0.0000000E+000	0.000000000000000E+000	0.00189898
2	0	0	1	0	0	0	190.696	-1.00001	-1.00034	-1.90022	-0.0138069	-0.0138069	11	-0.00383526	0	0.00383526	0.000000000000000E+000	0.00383526	0.0000000E+000	0.000000000000000E+000	0.00190087
2	0	0	1	0	0	0	191.896	-1.00001	-1.00038	-1.91132	-0.0160944	-0.0160944	11	-0.00447067	0	0.00447067	0.000000000000000E+000	0.00447067	0.0000000E+000	0.000000000000000E+000	0.00191205
2	0	0	1	0	0	0	193.096	-1.00001	-1.00032	-1.90931	-0.0183774	-0.0183774	11	-0.00510483	0	0.00510483	0.000000000000000E+000	0.00510483	0.0000000E+000	0.000000000000000E+000	0.00190993
2	0	0	1	0	0	0	194.296	-1.00001	-1.00029	-1.90163	-0.0206631	-0.0206631	11	-0.00573976	0	0.00573976	0.000000000000000E+000	0.00573976	0.0000000E+000	0.000000000000000E+000	0.00190217
2	0	0	1	0	0	0	195.496	-1.00001	-1.00044	-1.91165	-0.0229522	-0.0229522	11	-0.00637562	0	0.00637562	0.000000000000000E+000	0.00637562	0.0000000E+000	0.000000000000000E+000	0.00191249
2	0	0	1	0	0	0	196.696	-1.00001	-1.00053	-1.92779	-0.0252585	-0.0252585	11	-0.00701625	0	0.00701625	0.000000000000000E+000	0.00701625	0.0000000E+000	0.000000000000000E+000	0.00192882
2	0	0	1	0	0	0	197.896	-1.00001	-1.00021	-1.92449	-0.0275698	-0.0275698	11	-0.00765828	0	0.00765828	0.000000000000000E+000	0.00765828	0.0000000E+000	0.000000000000000E+000	0.00192489
2	0	0	1	0	0	0	199.096	-1.00001	-1.0005	-1.93549	-0.0298889	-0.0298889	11	-0.00830246	0	0.00830246	0.000000000000000E+000	0.00830246	0.0000000E+000	0.000000000000000E+000	0.00193645
2	0	0	1	0	0	0	200.296	-1.00001	-1.00038	-1.9381	-0.0322124	-0.0322124	11	-0.00894788	0	0.00894788	0.000000000000000E+000	0.00894788	0.0000000E+000	0.000000000000000E+000	0.00193884
2	0	0	1	0	0	0	201.496	-1.00001	-1.00055	-1.94725	-0.0345403	-0.0345403	11	-0.00959452	0	0.00959452	0.000000000000000E+000	0.00959452	0.0000000E+000	0.000000000000000E+000	0.00194833
2	0	0	1	0	0	0	202.696	-1.00001	-1.00019	-1.95074	-0.0368796	-0.0368796	11	-0.0102443	0	0.0102443	0.000000000000000E+000	0.0102443	0.0000000E+000	0.000000000000000E+000	0.00195111
2	0	0	1	0	0	0	203.896	-1.00001	-1.00029	-1.95703	-0.0392239	-0.0392239	11	-0.0108955	0	0.0108955	0.000000000000000E+000	0.0108955	0.0000000E+000	0.000000000000000E+000	0.00195759
2	0	0	1	0	0	0	205.096	-1.00001	-1.00034	-1.95924	-0.0415693	-0.0415693	11	-0.011547	0	0.011547	0.000000000000000E+000	0.011547	0.0000000E+000	0.000000000000000E+000	0.00195991
2	0	0	1	0	0	0	206.296	-1.00001	-1.00032	-1.94546	-0.0439111	-0.0439111	11	-0.0121975	0	0.0121975	0.000000000000000E+000	0.0121975	0.0000000E+000	0.000000000000000E+000	0.00194609
2	0	0	1	0	0	0	207.496	-1.00001	-1.00015	-1.95493	-0.0462495	-0.0462495	11	-0.0128471	0	0.0128471	0.000000000000000E+000	0.0128471	0.0000000E+000	0.000000000000000E+000	0.00195523
2	0	0	1	0	0	0	208.696	-1.00001	-1.00032	-1.96225	-0.0485992	-0.0485992	11	-0.0134998	0	0.0134998	0.000000000000000E+000	0.0134998	0.0000000E+000	0.000000000000000E+000	0.00196288
2	0	0	1	0	0	0	209.896	-1.00001	-1.00017	-1.95806	-0.0509515	-0.0509515	11	-0.0141532	0	0.0141532	0.000000000000000E+000	0.0141532	0.0000000E+000	0.000000000000000E+000	0.0019584
2	0	0	1	0	0	0	211.096	-1.00001	-1.00036	-1.95681	-0.0533008	-0.0533008	11	-0.0148058	0	0.0148058	0.000000000000000E+000	0.0148058	0.0000000E+000	0.000000000000000E+000	0.00195752
2	0	0	1	0	0	0	212.296	-1.00001	-1.00044	-1.96405	-0.0556548	-0.0556548	11	-0.0154597	0	0.0154597	0.000000000000000E+000	0.0154597	0.0000000E+000	0.000000000000000E+000	0.00196491
2	0	0	1	0	0	0	213.496	-1.00001	-1.00036	-1.96839	-0.058011	-0.058011	11	-0.0161142	0	0.0161142	0.000000000000000E+000	0.0161142	0.0000000E+000	0.000000000000000E+000	0.0019691
2	0	0	1	0	0	0	214.696	-1.00001	-1.00029	-1.96684	-0.0603722	-0.0603722	11	-0.0167701	0	0.0167701	0.000000000000000E+000	0.0167701	0.0000000E+000	0.000000000000000E+000	0.0019674
2	0	0	1	0	0	0	215.896	-1.00001	-1.00044	-1.97137	-0.0627355	-0.0627355	11	-0.0174265	0	0.0174265	0.000000000000000E+000	0.0174265	0.0000000E+000	0.000000000000000E+000	0.00197224
2	0	0	1	0	0	0	217.096	-1.00001	-1.00048	-1.98041	-0.0651046	-0.0651046	11	-0.0180846	0	0.0180846	0.000000000000000E+000	0.0180846	0.0000000E+000	0.000000000000000E+000	0.00198135
2	0	0	1	0	0	0	218.296	-1.00001	-1.00048	-1.97378	-0.0674782	-0.0674782	11	-0.0187439	0	0.0187439	0.000000000000000E+000	0.0187439	0.0000000E+000	0.000000000000000E+000	0.00197472
2	0	0	1	0	0	0	219.496	-1.00001	-1.00027	-1.97295	-0.069847	-0.069847	11	-0.019402	0	0.019402	0.000000000000000E+000	0.019402	0.0000000E+000	0.000000000000000E+000	0.00197348
2	0	0	1	0	0	0	220.696	-1.00001	-1.00025	-1.97733	-0.0722161	-0.0722161	11	-0.02006	0	0.02006	0.000000000000000E+000	0.02006	0.0000000E+000	0.000000000000000E+000	0.00197782
2	0	0	1	0	0	0	221.896	-1.00001	-1.00036	-1.97961	-0.0745836	-0.0745836	11	-0.0207177	0	0.0207177	0.000000000000000E+000	0.0207177	0.0000000E+000	0.000000000000000E+000	0.00198032
2	0	0	1	0	0	0	223.096	-1.00001	-1.00027	-1.97916	-0.0769601	-0.0769601	11	-0.0213778	0	0.0213778	0.000000000000000E+000	0.0213778	0.0000000E+000	0.000000000000000E+000	0.00197969
2	0	0	1	0	0	0	224.296	-1.00001	-1.00036	-1.98345	-0.0793381	-0.0793381	11	-0.0220384	0	0.0220384	0.000000000000000E+000	0.0220384	0.0000000E+000	0.000000000000000E+000	0.00198417
2	0	0	1	0	0	0	225.496	-1.00001	-1.00025	-1.99005	-0.0817171	-0.0817171	11	-0.0226992	0	0.0226992	0.000000000000000E+000	0.0226992	0.0000000E+000	0.000000000000000E+000	0.00199054
2	0	0	1	0	0	0	226.696	-1.00001	-1.00046	-1.99114	-0.0841065	-0.0841065	11	-0.0233629	0	0.0233629	0.000000000000000E+000	0.0233629	0.0000000E+000	0.000000000000000E+000	0.00199205
2	0	0	1	0	0	0	227.896	-1.00001	-1.0004	-1.99464	-0.0865059	-0.0865059	11	-0.0240294	0	0.0240294	0.000000000000000E+000	0.0240294	0.0000000E+000	0.000000000000000E+000	0.00199544
2	0	0	1	0	0	0	229.096	-1.00001	-1.00034	-1.99933	-0.088906	-0.088906	11	-0.0246961	0	0.0246961	0.000000000000000E+000	0.0246961	0.0000000E+000	0.000000000000000E+000	0.00200002
2	0	0	1	0	0	0	230.296	-1.00001	-1.00036	-2.00154	-0.0913051	-0.0913051	11	-0.0253625	0	0.0253625	0.000000000000000E+000	0.0253625	0.0000000E+000	0.000000000000000E+000	0.00200226
2	0	0	1	0	0	0	231.496	-1.00001	-1.00042	-2.00793	-0.0937129	-0.0937129	11	-0.0260314	0	0.0260314	0.000000000000000E+000	0.0260314	0.0000000E+000	0.000000000000000E+000	0.00200878
2	0	0	1	0	0	0	232.696	-1.00001	-1.00046	-2.00636	-0.0961221	-0.0961221	11	-0.0267006	0	0.0267006	0.000000000000000E+000	0.0267006	0.0000000E+000	0.000000000000000E+000	0.00200728
2	0	0	1	0	0	0	233.896	-1.00001	-1.00031	-2.00824	-0.0985301	-0.0985301	11	-0.0273695	0	0.0273695	0.000000000000000E+000	0.0273695	0.0000000E+000	0.000000000000000E+000	0.00200886
2	0	0	1	0	0	0	235.096	-1.00001	-1.00034	-2.01239	-0.100942	-0.100942	11	-0.0280394	0	0.0280394	0.000000000000000E+000	0.0280394	0.0000000E+000	0.000000000000000E+000	0.00201308
2	0	0	1	0	0	0	236.296	-1.00001	-1.00031	-2.01501	-0.103358	-0.103358	11	-0.0287107	0	0.0287107	0.000000000000000E+000	0.0287107	0.0000000E+000	0.000000000000000E+000	0.00201563
2	0	0	1	0	0	0	237.496	-1.00001	-1.0004	-2.01351	-0.105771	-0.105771	11	-0.0293809	0	0.0293809	0.000000000000000E+000	0.0293809	0.0000000E+000	0.000000000000000E+000	0.00201432
2	0	0	1	0	0	0	238.696	-1.00001	-1.00046	-2.01239	-0.108183	-0.108183	11	-0.0300508	0	0.0300508	0.000000000000000E+000	0.0300508	0.0000000E+000	0.000000000000000E+000	0.00201331
2	0	0	1	0	0	0	239.896	-1.00001	-1.00036	-2.00404	-0.110597	-0.110597	11	-0.0307215	0	0.0307215	0.000000000000000E+000	0.0307215	0.0000000E+000	0.000000000000000E+000	0.00200477
2	0	0	1	0	0	0	241.096	-1.00001	-1.00036	-2.013	-0.113009	-0.113009	11	-0.0313915	0	0.0313915	0.000000000000000E+000	0.0313915	0.0000000E+000	0.000000000000000E+000	0.00201373
2	0	0	1	0	0	0	242.296	-1.00001	-1.00031	-2.01107	-0.115418	-0.115418	11	-0.0320606	0	0.0320606	0.000000000000000E+000	0.0320606	0.0000000E+000	0.000000000000000E+000	0.00201169
2	0	0	1	0	0	0	243.496	-1.00001	-1.00036	-2.01664	-0.117838	-0.117838	11	-0.0327327	0	0.0327327	0.000000000000000E+000	0.0327327	0.0000000E+000	0.000000000000000E+000	0.00201737
2	0	0	1	0	0	0	244.696	-1.00001	-1.00036	-2.00875	-0.120257	-0.120257	11	-0.0334047	0	0.0334047	0.000000000000000E+000	0.0334047	0.0000000E+000	0.000000000000000E+000	0.00200948
2	0	0	1	0	0	0	245.896	-1.00001	-1.00031	-2.01896	-0.122675	-0.122675	11	-0.0340765	0	0.0340765	0.000000000000000E+000	0.0340765	0.0000000E+000	0.000000000000000E+000	0.00201958
2	0	0	1	0	0	0	247.096	-1.00001	-1.00019	-2.02462	-0.1251	-0.1251	11	-0.0347499	0	0.0347499	0.000000000000000E+000	0.0347499	0.0000000E+000	0.000000000000000E+000	0.00202501
2	0	0	1	0	0	0	248.296	-1.00001	-1.00044	-2.02403	-0.127524	-0.127524	11	-0.0354235	0	0.0354235	0.000000000000000E+000	0.0354235	0.0000000E+000	0.000000000000000E+000	0.00202492
2	0	0	1	0	0	0	249.496	-1.00001	-1.00036	-2.02915	-0.129958	-0.129958	11	-0.0360993	0	0.0360993	0.000000000000000E+000	0.0360993	0.0000000E+000	0.000000000000000E+000	0.00202988
2	0	0	1	0	0	0	250.696	-1.00001	-1.00032	-2.02922	-0.132393	-0.132393	11	-0.0367759	0	0.0367759	0.000000000000000E+000	0.0367759	0.0000000E+000	0.000000000000000E+000	0.00202988
2	0	0	1	0	0	0	251.896	-1.00001	-1.00036	-2.03322	-0.134832	-0.134832	11	-0.0374534	0	0.0374534	0.000000000000000E+000	0.0374534	0.0000000E+000	0.000000000000000E+000	0.00203395
2	0	0	1	0	0	0	253.096	-1.00001	-1.00029	-2.03803	-0.137269	-0.137269	11	-0.0381302	0	0.0381302	0.000000000000000E+000	0.0381302	0.0000000E+000	0.000000000000000E+000	0.00203862
2	0	0	1	0	0	0	254.296	-1.00001	-1.00032	-2.02718	-0.139703	-0.139703	11	-0.0388063	0	0.0388063	0.000000000000000E+000	0.0388063	0.0000000E+000	0.000000000000000E+000	0.00202784
2	0	0	1	0	0	0	255.496	-1.00001	-1.00029	-2.02461	-0.142136	-0.142136	11	-0.0394821	0	0.0394821	0.000000000000000E+000	0.0394821	0.0000000E+000	0.000000000000000E+000	0.00202519
2	0	0	1	0	0	0	256.696	-1.00001	-1.00038	-2.03263	-0.144576	-0.144576	11	-0.0401599	0	0.0401599	0.000000000000000E+000	0.0401599	0.0000000E+000	0.000000000000000E+000	0.00203341
2	0	0	1	0	0	0	257.896	-1.00001	-1.00027	-2.03283	-0.147013	-0.147013	11	-0.0408368	0	0.0408368	0.000000000000000E+000	0.0408368	0.0000000E+000	0.000000000000000E+000	0.00203338
2	0	0	1	0	0	0	259.096	-1.00001	-1.00048	-2.03942	-0.149452	-0.149452	11	-0.0415144	0	0.0415144	0.000000000000000E+000	0.0415144	0.0000000E+000	0.000000000000000E+000	0.0020404
2	0	0	1	0	0	0	260.296	-1.00001	-1.00032	-2.04064	-0.151895	-0.151895	11	-0.042193	0	0.042193	0.000000000000000E+000	0.042193	0.0000000E+000	0.000000000000000E+000	0.0020413
2	0	0	0	0	0	0	261.496	-0.899966	-0.900362	-1.80989	-0.154055	-0.154055	11	-0.042793	0	0.042793	0.000000000000000E+000	0.042793	0.0000000E+000	0.000000000000000E+000	0.00162956
2	0	0	0	0	0	0	262.696	-0.899966	-0.900286	-1.83665	-0.156246	-0.156246	11	-0.0434017	0	0.0434017	0.000000000000000E+000	0.0434017	0.0000000E+000	0.000000000000000E+000	0.00165351
2	0	0	0	0	0	0	263.896	-0.899966	-0.900362	-1.84659	-0.158458	-0.158458	11	-0.0440162	0	0.0440162	0.000000000000000E+000	0.0440162	0.0000000E+000	0.000000000000000E+000	0.0016626
2	0	0	0	0	0	0	265.096	-0.899966	-0.900401	-1.85331	-0.160681	-0.160681	11	-0.0446336	0	0.0446336	0.000000000000000E+000	0.0446336	0.0000000E+000	0.000000000000000E+000	0.00166872
2	0	0	0	0	0	0	266.296	-0.899966	-0.900439	-1.85844	-0.162909	-0.162909	11	-0.0452525	0	0.0452525	0.000000000000000E+000	0.0452525	0.0000000E+000	0.000000000000000E+000	0.00167341
2	0	0	0	0	0	0	267.496	-0.899966	-0.900305	-1.86224	-0.165142	-0.165142	11	-0.0458728	0	0.0458728	0.000000000000000E+000	0.0458728	0.0000000E+000	0.000000000000000E+000	0.00167658
2	0	0	0	0	0	0	268.696	-0.899966	-0.900324	-1.85677	-0.16737	-0.16737	11	-0.0464916	0	0.0464916	0.000000000000000E+000	0.0464916	0.0000000E+000	0.000000000000000E+000	0.00167169
2	0	0	0	0	0	0	269.896	-0.899966	-0.900496	-1.85891	-0.169599	-0.169599	11	-0.0471107	0	0.0471107	0.000000000000000E+000	0.0471107	0.0000000E+000	0.000000000000000E+000	0.00167394
2	0	0	0	0	0	0	271.096	-0.899966	-0.900286	-1.85963	-0.171831	-0.171831	11	-0.0477307	0	0.0477307	0.000000000000000E+000	0.0477307	0.0000000E+000	0.000000000000000E+000	0.0016742
2	0	0	0	0	0	0	272.296	-0.899966	-0.900496	-1.85674	-0.174059	-0.174059	11	-0.0483498	0	0.0483498	0.000000000000000E+000	0.0483498	0.0000000E+000	0.000000000000000E+000	0.00167199
2	0	0	0	0	0	0	273.496	-0.899966	-0.900362	-1.85622	-0.176286	-0.176286	11	-0.0489684	0	0.0489684	0.000000000000000E+000	0.0489684	0.0000000E+000	0.000000000000000E+000	0.00167127
2	0	0	0	0	0	0	274.696	-0.899966	-0.900343	-1.85639	-0.178512	-0.178512	11	-0.0495867	0	0.0495867	0.000000000000000E+000	0.0495867	0.0000000E+000	0.000000000000000E+000	0.00167139
2	0	0	0	0	0	0	275.896	-0.899966	-0.900382	-1.85526	-0.18074	-0.18074	11	-0.0502056	0	0.0502056	0.000000000000000E+000	0.0502056	0.0000000E+000	0.000000000000000E+000	0.00167044
2	0	0	0	0	0	0	277.096	-0.899966	-0.900477	-1.85603	-0.182968	-0.182968	11	-0.0508245	0	0.0508245	0.000000000000000E+000	0.0508245	0.0000000E+000	0.000000000000000E+000	0.00167131
2	0	0	0	0	0	0	278.296	-0.899966	-0.90042	-1.85161	-0.185196	-0.185196	11	-0.0514433	0	0.0514433	0.000000000000000E+000	0.0514433	0.0000000E+000	0.000000000000000E+000	0.00166723
2	0	0	0	0	0	0	279.496	-0.899966	-0.900343	-1.8555	-0.187422	-0.187422	11	-0.0520617	0	0.0520617	0.000000000000000E+000	0.0520617	0.0000000E+000	0.000000000000000E+000	0.00167059
2	0	0	0	0	0	0	280.696	-0.899966	-0.900305	-1.80861	-0.189641	-0.189641	11	-0.0526781	0	0.0526781	0.000000000000000E+000	0.0526781	0.0000000E+000	0.000000000000000E+000	0.0016283
2	0	0	0	0	0	0	281.896	-0.899966	-0.900401	-1.73616	-0.191736	-0.191736	11	-0.0532601	0	0.0532601	0.000000000000000E+000	0.0532601	0.0000000E+000	0.000000000000000E+000	0.00156324
2	0	0	0	0	0	0	283.096	-0.899966	-0.900229	-1.72923	-0.193813	-0.193813	11	-0.0538371	0	0.0538371	0.000000000000000E+000	0.0538371	0.0000000E+000	0.000000000000000E+000	0.0015567
2	0	0	0	0	0	0	284.296	-0.899966	-0.900324	-1.72616	-0.195889	-0.195889	11	-0.0544135	0	0.0544135	0.000000000000000E+000	0.0544135	0.0000000E+000	0.000000000000000E+000	0.0015541
2	0	0	0	0	0	0	285.496	-0.899966	-0.900343	-1.72397	-0.197958	-0.197958	11	-0.0549884	0	0.0549884	0.000000000000000E+000	0.0549884	0.0000000E+000	0.000000000000000E+000	0.00155216
2	0	0	0	0	0	0	286.696	-0.899966	-0.900401	-1.72442	-0.200025	-0.200025	11	-0.0555625	0	0.0555625	0.000000000000000E+000	0.0555625	0.0000000E+000	0.000000000000000E+000	0.00155267
2	0	0	0	0	0	0	287.896	-0.899966	-0.900305	-1.7247	-0.202093	-0.202093	11	-0.0561368	0	0.0561368	0.000000000000000E+000	0.0561368	0.0000000E+000	0.000000000000000E+000	0.00155276
2	0	0	0	0	0	0	289.096	-0.899966	-0.900382	-1.72027	-0.204162	-0.204162	11	-0.0567115	0	0.0567115	0.000000000000000E+000	0.0567115	0.0000000E+000	0.000000000000000E+000	0.0015489
2	0	0	0	0	0	0	290.296	-0.899966	-0.900401	-1.72364	-0.206229	-0.206229	11	-0.0572859	0	0.0572859	0.000000000000000E+000	0.0572859	0.0000000E+000	0.000000000000000E+000	0.00155197
2	0	0	0	0	0	0	291.496	-0.899966	-0.90042	-1.72348	-0.2083	-0.2083	11	-0.057861	0	0.057861	0.000000000000000E+000	0.057861	0.0000000E+000	0.000000000000000E+000	0.00155185
2	0	0	0	0	0	0	292.696	-0.899966	-0.900362	-1.71842	-0.210364	-0.210364	11	-0.0584345	0	0.0584345	0.000000000000000E+000	0.0584345	0.0000000E+000	0.000000000000000E+000	0.0015472
2	0	0	0	0	0	0	293.896	-0.899966	-0.900267	-1.72138	-0.21243	-0.21243	11	-0.0590083	0	0.0590083	0.000000000000000E+000	0.0590083	0.0000000E+000	0.000000000000000E+000	0.00154971
2	0	0	0	0	0	0	295.096	-0.899966	-0.900439	-1.66506	-0.214459	-0.214459	11	-0.0595718	0	0.0595718	0.000000000000000E+000	0.0595718	0.0000000E+000	0.000000000000000E+000	0.00149928
2	0	0	0	0	0	0	296.296	-0.899966	-0.900382	-1.64453	-0.216445	-0.216445	11	-0.0601235	0	0.0601235	0.000000000000000E+000	0.0601235	0.0000000E+000	0.000000000000000E+000	0.00148071
2	0	0	0	0	0	0	297.496	-0.899966	-0.900362	-1.63603	-0.218415	-0.218415	11	-0.0606707	0	0.0606707	0.000000000000000E+000	0.0606707	0.0000000E+000	0.000000000000000E+000	0.00147302
2	0	0	0	0	0	0	298.696	-0.899966	-0.900362	-1.64022	-0.220382	-0.220382	11	-0.0612171	0	0.0612171	0.000000000000000E+000	0.0612171	0.0000000E+000	0.000000000000000E+000	0.00147679
2	0	0	0	0	0	0	299.896	-0.899966	-0.900362	-1.64011	-0.222348	-0.222348	11	-0.0617635	0	0.0617635	0.000000000000000E+000	0.0617635	0.0000000E+000	0.000000000000000E+000	0.0014767
2	0	0	0	0	0	0	301.096	-0.899966	-0.900267	-1.63558	-0.224314	-0.224314	11	-0.0623094	0	0.0623094	0.000000000000000E+000	0.0623094	0.0000000E+000	0.000000000000000E+000	0.00147246
2	0	0	0	0	0	0	302.296	-0.899966	-0.900458	-1.63502	-0.226279	-0.226279	11	-0.0628552	0	0.0628552	0.000000000000000E+000	0.0628552	0.0000000E+000	0.000000000000000E+000	0.00147226
2	0	0	0	0	0	0	303.496	-0.899966	-0.900324	-1.63772	-0.228243	-0.228243	11	-0.0634008	0	0.0634008	0.000000000000000E+000	0.0634008	0.0000000E+000	0.000000000000000E+000	0.00147448
2	0	0	0	0	0	0	304.696	-0.899966	-0.900343	-1.63788	-0.230209	-0.230209	11	-0.063947	0	0.063947	0.000000000000000E+000	0.063947	0.0000000E+000	0.000000000000000E+000	0.00147466
2	0	0	0	0	0	0	305.896	-0.899966	-0.900401	-1.63605	-0.232174	-0.232174	11	-0.0644928	0	0.0644928	0.000000000000000E+000	0.0644928	0.0000000E+000	0.000000000000000E+000	0.0014731
2	0	0	0	0	0	0	307.096	-0.899966	-0.900324	-1.63398	-0.234137	-0.234137	11	-0.0650382	0	0.0650382	0.000000000000000E+000	0.0650382	0.0000000E+000	0.000000000000000E+000	0.00147111
2	0	0	0	0	0	0	308.296	-0.899966	-0.90021	-1.56767	-0.236065	-0.236065	11	-0.0655735	0	0.0655735	0.000000000000000E+000	0.0655735	0.0000000E+000	0.000000000000000E+000	0.00141124
2	0	0	0	0	0	0	309.496	-0.899966	-0.900362	-1.52048	-0.237909	-0.237909	11	-0.0660859	0	0.0660859	0.000000000000000E+000	0.0660859	0.0000000E+000	0.000000000000000E+000	0.00136899
2	0	0	0	0	0	0	310.696	-0.899966	-0.900267	-1.50175	-0.23972	-0.23972	11	-0.066589	0	0.066589	0.000000000000000E+000	0.066589	0.0000000E+000	0.000000000000000E+000	0.00135198
2	0	0	0	0	0	0	311.896	-0.899966	-0.900382	-1.49299	-0.241517	-0.241517	11	-0.0670881	0	0.0670881	0.000000000000000E+000	0.0670881	0.0000000E+000	0.000000000000000E+000	0.00134426
2	0	0	0	0	0	0	313.096	-0.899966	-0.90042	-1.49081	-0.243306	-0.243306	11	-0.0675849	0	0.0675849	0.000000000000000E+000	0.0675849	0.0000000E+000	0.000000000000000E+000	0.00134235
2	0	0	0	0	0	0	314.296	-0.899966	-0.900362	-1.48712	-0.24509	-0.24509	11	-0.0680805	0	0.0680805	0.000000000000000E+000	0.0680805	0.0000000E+000	0.000000000000000E+000	0.00133895
2	0	0	0	0	0	0	315.496	-0.899966	-0.900324	-1.48664	-0.246876	-0.246876	11	-0.0685765	0	0.0685765	0.000000000000000E+000	0.0685765	0.0000000E+000	0.000000000000000E+000	0.00133846
2	0	0	0	0	0	0	316.696	-0.899966	-0.900362	-1.48794	-0.248662	-0.248662	11	-0.0690729	0	0.0690729	0.000000000000000E+000	0.0690729	0.0000000E+000	0.000000000000000E+000	0.00133968
2	0	0	0	0	0	0	317.896	-0.899966	-0.900305	-1.48608	-0.250446	-0.250446	11	-0.0695684	0	0.0695684	0.000000000000000E+000	0.0695684	0.0000000E+000	0.000000000000000E+000	0.00133793
2	0	0	0	0	0	0	319.096	-0.899966	-0.900343	-1.48934	-0.252231	-0.252231	11	-0.070064	0	0.070064	0.000000000000000E+000	0.070064	0.0000000E+000	0.000000000000000E+000	0.00134092
2	0	0	0	0	0	0	320.296	-0.899966	-0.900286	-1.48519	-0.254015	-0.254015	11	-0.0705598	0	0.0705598	0.000000000000000E+000	0.0705598	0.0000000E+000	0.000000000000000E+000	0.0013371
2	0	0	0	0	0	0	321.496	-0.899966	-0.900362	-1.48591	-0.2558	-0.2558	11	-0.0710554	0	0.0710554	0.000000000000000E+000	0.0710554	0.0000000E+000	0.000000000000000E+000	0.00133785
2	0	0	0	0	0	0	322.696	-0.899966	-0.900324	-1.48426	-0.25758	-0.25758	11	-0.0715499	0	0.0715499	0.000000000000000E+000	0.0715499	0.0000000E+000	0.000000000000000E+000	0.00133632
2	0	0	0	0	0	0	323.896	-0.899966	-0.90042	-1.48447	-0.25936	-0.25936	11	-0.0720445	0	0.0720445	0.000000000000000E+000	0.0720445	0.0000000E+000	0.000000000000000E+000	0.00133665
2	0	0	0	0	0	0	325.096	-0.899966	-0.900324	-1.48209	-0.261141	-0.261141	11	-0.0725391	0	0.0725391	0.000000000000000E+000	0.0725391	0.0000000E+000	0.000000000000000E+000	0.00133437
2	0	0	0	0	0	0	326.296	-0.899966	-0.900305	-1.48471	-0.262921	-0.262921	11	-0.0730336	0	0.0730336	0.000000000000000E+000	0.0730336	0.0000000E+000	0.000000000000000E+000	0.00133669
2	0	0	0	0	0	0	327.496	-0.899966	-0.900267	-1.47535	-0.264698	-0.264698	11	-0.0735273	0	0.0735273	0.000000000000000E+000	0.0735273	0.0000000E+000	0.000000000000000E+000	0.00132821
2	0	0	0	0	0	0	328.696	-0.899966	-0.900362	-1.43051	-0.266437	-0.266437	11	-0.0740102	0	0.0740102	0.000000000000000E+000	0.0740102	0.0000000E+000	0.000000000000000E+000	0.00128798
2	0	0	0	0	0	0	329.896	-0.899966	-0.900305	-1.40422	-0.268135	-0.268135	11	-0.074482	0	0.074482	0.000000000000000E+000	0.074482	0.0000000E+000	0.000000000000000E+000	0.00126422
2	0	0	0	0	0	0	331.096	-0.899966	-0.900382	-1.38761	-0.26981	-0.26981	11	-0.0749471	0	0.0749471	0.000000000000000E+000	0.0749471	0.0000000E+000	0.000000000000000E+000	0.00124938
2	0	0	0	0	0	0	332.296	-0.899966	-0.900362	-1.37988	-0.271473	-0.271473	11	-0.0754091	0	0.0754091	0.000000000000000E+000	0.0754091	0.0000000E+000	0.000000000000000E+000	0.00124239
2	0	0	0	0	0	0	333.496	-0.899966	-0.900382	-1.3821	-0.27313	-0.27313	11	-0.0758693	0	0.0758693	0.000000000000000E+000	0.0758693	0.0000000E+000	0.000000000000000E+000	0.00124442
2	0	0	0	0	0	0	334.696	-0.899966	-0.900324	-1.37744	-0.274785	-0.274785	11	-0.0763293	0	0.0763293	0.000000000000000E+000	0.0763293	0.0000000E+000	0.000000000000000E+000	0.00124014
2	0	0	0	0	0	0	335.896	-0.899966	-0.900401	-1.37354	-0.276436	-0.276436	11	-0.0767877	0	0.0767877	0.000000000000000E+000	0.0767877	0.0000000E+000	0.000000000000000E+000	0.00123674
2	0	0	0	0	0	0	337.096	-0.899966	-0.900362	-1.37733	-0.278086	-0.278086	11	-0.0772462	0	0.0772462	0.000000000000000E+000	0.0772462	0.0000000E+000	0.000000000000000E+000	0.00124009
2	0	0	0	0	0	0	338.296	-0.899966	-0.900343	-1.37773	-0.279738	-0.279738	11	-0.077705	0	0.077705	0.000000000000000E+000	0.077705	0.0000000E+000	0.000000000000000E+000	0.00124043
2	0	0	0	0	0	0	339.496	-0.899966	-0.900324	-1.37999	-0.281393	-0.281393	11	-0.0781647	0	0.0781647	0.000000000000000E+000	0.0781647	0.0000000E+000	0.000000000000000E+000	0.00124244
2	0	0	0	0	0	0	340.696	-0.899966	-0.900382	-1.37296	-0.283045	-0.283045	11	-0.0786236	0	0.0786236	0.000000000000000E+000	0.0786236	0.0000000E+000	0.000000000000000E+000	0.00123619
2	0	0	0	0	0	0	341.896	-0.899966	-0.900401	-1.3702	-0.284693	-0.284693	11	-0.0790815	0	0.0790815	0.000000000000000E+000	0.0790815	0.0000000E+000	0.000000000000000E+000	0.00123373
2	0	0	0	0	0	0	343.096	-0.899966	-0.900305	-1.33581	-0.286323	-0.286323	11	-0.0795342	0	0.0795342	0.000000000000000E+000	0.0795342	0.0000000E+000	0.000000000000000E+000	0.00120264
2	0	0	0	0	0	0	344.296	-0.899966	-0.900362	-1.30054	-0.287902	-0.287902	11	-0.0799727	0	0.0799727	0.000000000000000E+000	0.0799727	0.0000000E+000	0.000000000000000E+000	0.00117096
2	0	0	0	0	0	0	345.496	-0.899966	-0.900343	-1.27823	-0.289449	-0.289449	11	-0.0804026	0	0.0804026	0.000000000000000E+000	0.0804026	0.0000000E+000	0.000000000000000E+000	0.00115084
2	0	0	0	0	0	0	346.696	-0.899966	-0.900458	-1.27	-0.290978	-0.290978	11	-0.0808272	0	0.0808272	0.000000000000000E+000	0.0808272	0.0000000E+000	0.000000000000000E+000	0.00114358
2	0	0	0	0	0	0	347.896	-0.899966	-0.900324	-1.26017	-0.292497	-0.292497	11	-0.0812491	0	0.0812491	0.000000000000000E+000	0.0812491	0.0000000E+000	0.000000000000000E+000	0.00113457
2	0	0	0	0	0	0	349.096	-0.899966	-0.90042	-1.25601	-0.294007	-0.294007	11	-0.0816686	0	0.0816686	0.000000000000000E+000	0.0816686	0.0000000E+000	0.000000000000000E+000	0.00113094
2	0	0	0	0	0	0	350.296	-0.899966	-0.900324	-1.25842	-0.295515	-0.295515	11	-0.0820875	0	0.0820875	0.000000000000000E+000	0.0820875	0.0000000E+000	0.000000000000000E+000	0.00113299
2	0	0	0	0	0	0	351.496	-0.899966	-0.900324	-1.25099	-0.297019	-0.297019	11	-0.0825053	0	0.0825053	0.000000000000000E+000	0.0825053	0.0000000E+000	0.000000000000000E+000	0.00112629
2	0	0	0	0	0	0	352.696	-0.899966	-0.900248	-1.25087	-0.298521	-0.298521	11	-0.0829226	0	0.0829226	0.000000000000000E+000	0.0829226	0.0000000E+000	0.000000000000000E+000	0.0011261
2	0	0	0	0	0	0	353.896	-0.899966	-0.900362	-1.24691	-0.300021	-0.300021	11	-0.0833393	0	0.0833393	0.000000000000000E+000	0.0833393	0.0000000E+000	0.000000000000000E+000	0.00112267
2	0	0	0	0	0	0	355.096	-0.899966	-0.900477	-1.2488	-0.301517	-0.301517	11	-0.0837548	0	0.0837548	0.000000000000000E+000	0.0837548	0.0000000E+000	0.000000000000000E+000	0.00112452
2	0	0	0	0	0	0	356.296	-0.899966	-0.900496	-1.24376	-0.303011	-0.303011	11	-0.0841697	0	0.0841697	0.000000000000000E+000	0.0841697	0.0000000E+000	0.000000000000000E+000	0.00112
2	0	0	0	0	0	0	357.496	-0.899966	-0.900439	-1.24274	-0.304504	-0.304504	11	-0.0845846	0	0.0845846	0.000000000000000E+000	0.0845846	0.0000000E+000	0.000000000000000E+000	0.00111901
2	0	0	0	0	0	0	358.696	-0.899966	-0.900458	-1.24111	-0.305997	-0.305997	11	-0.0849991	0	0.0849991	0.000000000000000E+000	0.0849991	0.0000000E+000	0.000000000000000E+000	0.00111757
2	0	0	0	0	0	0	359.896	-0.899966	-0.900305	-1.24254	-0.307488	-0.307488	11	-0.0854134	0	0.0854134	0.000000000000000E+000	0.0854134	0.0000000E+000	0.000000000000000E+000	0.00111867
2	0	0	0	0	0	0	361.096	-0.899966	-0.900401	-1.24128	-0.30898	-0.30898	11	-0.0858277	0	0.0858277	0.000000000000000E+000	0.0858277	0.0000000E+000	0.000000000000000E+000	0.00111765
2	0	0	0	0	0	0	362.296	-0.899966	-0.900515	-1.2399	-0.31047	-0.31047	11	-0.0862418	0	0.0862418	0.000000000000000E+000	0.0862418	0.0000000E+000	0.000000000000000E+000	0.00111655
2	0	0	0	0	0	0	363.496	-0.899966	-0.900496	-1.23423	-0.311957	-0.311957	11	-0.0866547	0	0.0866547	0.000000000000000E+000	0.0866547	0.0000000E+000	0.000000000000000E+000	0.00111142
2	0	0	0	0	0	0	364.696	-0.899966	-0.900362	-1.2376	-0.31344	-0.31344	11	-0.0870667	0	0.0870667	0.000000000000000E+000	0.0870667	0.0000000E+000	0.000000000000000E+000	0.00111429
2	0	0	0	0	0	0	365.896	-0.899966	-0.900401	-1.23145	-0.314924	-0.314924	11	-0.0874789	0	0.0874789	0.000000000000000E+000	0.0874789	0.0000000E+000	0.000000000000000E+000	0.0011088
2	0	0	0	0	0	0	367.096	-0.899966	-0.90042	-1.2127	-0.316392	-0.316392	11	-0.0878867	0	0.0878867	0.000000000000000E+000	0.0878867	0.0000000E+000	0.000000000000000E+000	0.00109194
2	0	0	0	0	0	0	368.296	-0.899966	-0.900267	-1.1951	-0.317834	-0.317834	11	-0.0882874	0	0.0882874	0.000000000000000E+000	0.0882874	0.0000000E+000	0.000000000000000E+000	0.00107591
2	0	0	0	0	0	0	369.496	-0.899966	-0.900267	-1.18467	-0.319259	-0.319259	11	-0.088683	0	0.088683	0.000000000000000E+000	0.088683	0.0000000E+000	0.000000000000000E+000	0.00106652
2	0	0	0	0	0	0	370.696	-0.899966	-0.900324	-1.17191	-0.320672	-0.320672	11	-0.0890757	0	0.0890757	0.000000000000000E+000	0.0890757	0.0000000E+000	0.000000000000000E+000	0.0010551
2	0	0	0	0	0	0	371.896	-0.899966	-0.900324	-1.15965	-0.322073	-0.322073	11	-0.0894648	0	0.0894648	0.000000000000000E+000	0.0894648	0.0000000E+000	0.000000000000000E+000	0.00104406
2	0	0	0	0	0	0	373.096	-0.899966	-0.900343	-1.15754	-0.323467	-0.323467	11	-0.0898518	0	0.0898518	0.000000000000000E+000	0.0898518	0.0000000E+000	0.000000000000000E+000	0.00104218
2	0	0	0	0	0	0	374.296	-0.899966	-0.900343	-1.15349	-0.324853	-0.324853	11	-0.0902371	0	0.0902371	0.000000000000000E+000	0.0902371	0.0000000E+000	0.000000000000000E+000	0.00103854
2	0	0	0	0	0	0	375.496	-0.899966	-0.900458	-1.15133	-0.326236	-0.326236	11	-0.0906211	0	0.0906211	0.000000000000000E+000	0.0906211	0.0000000E+000	0.000000000000000E+000	0.00103672
2	0	0	0	0	0	0	376.696	-0.899966	-0.900401	-1.14537	-0.327614	-0.327614	11	-0.0910038	0	0.0910038	0.000000000000000E+000	0.0910038	0.0000000E+000	0.000000000000000E+000	0.00103129
2	0	0	0	0	0	0	377.896	-0.899966	-0.900401	-1.14632	-0.328988	-0.328988	11	-0.0913856	0	0.0913856	0.000000000000000E+000	0.0913856	0.0000000E+000	0.000000000000000E+000	0.00103215
2	0	0	0	0	0	0	379.096	-0.899966	-0.900362	-1.14043	-0.330358	-0.330358	11	-0.0917662	0	0.0917662	0.000000000000000E+000	0.0917662	0.0000000E+000	0.000000000000000E+000	0.0010268
2	0	0	0	0	0	0	380.296	-0.899966	-0.900267	-1.13681	-0.331726	-0.331726	11	-0.0921462	0	0.0921462	0.000000000000000E+000	0.0921462	0.0000000E+000	0.000000000000000E+000	0.00102343
2	0	0	0	0	0	0	381.496	-0.899966	-0.900362	-1.13689	-0.333093	-0.333093	11	-0.0925259	0	0.0925259	0.000000000000000E+000	0.0925259	0.0000000E+000	0.000000000000000E+000	0.00102362
2	0	0	0	0	0	0	382.696	-0.899966	-0.900324	-1.13677	-0.334459	-0.334459	11	-0.0929053	0	0.0929053	0.000000000000000E+000	0.0929053	0.0000000E+000	0.000000000000000E+000	0.00102346
2	0	0	0	0	0	0	383.896	-0.899966	-0.900324	-1.1363	-0.33582	-0.33582	11	-0.0932833	0	0.0932833	0.000000000000000E+000	0.0932833	0.0000000E+000	0.000000000000000E+000	0.00102303
2	0	0	0	0	0	0	385.096	-0.899966	-0.900382	-1.13293	-0.337179	-0.337179	11	-0.0936608	0	0.0936608	0.000000000000000E+000	0.0936608	0.0000000E+000	0.000000000000000E+000	0.00102007
2	0	0	0	0	0	0	386.296	-0.899966	-0.900439	-1.12956	-0.338535	-0.338535	11	-0.0940375	0	0.0940375	0.000000000000000E+000	0.0940375	0.0000000E+000	0.000000000000000E+000	0.0010171
2	0	0	0	0	0	0	387.496	-0.899966	-0.900286	-1.13102	-0.33989	-0.33989	11	-0.0944138	0	0.0944138	0.000000000000000E+000	0.0944138	0.0000000E+000	0.000000000000000E+000	0.00101824
2	0	0	0	0	0	0	388.696	-0.899966	-0.900382	-1.12468	-0.341241	-0.341241	11	-0.0947892	0	0.0947892	0.000000000000000E+000	0.0947892	0.0000000E+000	0.000000000000000E+000	0.00101264
2	0	0	0	0	0	0	389.896	-0.899966	-0.900343	-1.12008	-0.34259	-0.34259	11	-0.0951638	0	0.0951638	0.000000000000000E+000	0.0951638	0.0000000E+000	0.000000000000000E+000	0.00100845
2	0	0	0	0	0	0	391.096	-0.899966	-0.900324	-1.12519	-0.343937	-0.343937	11	-0.0955381	0	0.0955381	0.000000000000000E+000	0.0955381	0.0000000E+000	0.000000000000000E+000	0.00101304
2	0	0	0	0	0	0	392.296	-0.899966	-0.900305	-1.1361	-0.345293	-0.345293	11	-0.0959148	0	0.0959148	0.000000000000000E+000	0.0959148	0.0000000E+000	0.000000000000000E+000	0.00102284
2	0	0	0	0	0	0	393.496	-0.899966	-0.900324	-1.16428	-0.346674	-0.346674	11	-0.0962984	0	0.0962984	0.000000000000000E+000	0.0962984	0.0000000E+000	0.000000000000000E+000	0.00104823
2	0	0	0	0	0	0	394.696	-0.899966	-0.900362	-1.17195	-0.348078	-0.348078	11	-0.0966883	0	0.0966883	0.000000000000000E+000	0.0966883	0.0000000E+000	0.000000000000000E+000	0.00105518
2	0	0	0	0	0	0	395.896	-0.899966	-0.900439	-1.18653	-0.349495	-0.349495	11	-0.097082	0	0.097082	0.000000000000000E+000	0.097082	0.0000000E+000	0.000000000000000E+000	0.0010684
2	0	0	0	0	0	0	397.096	-0.899966	-0.900286	-1.19247	-0.350921	-0.350921	11	-0.0974782	0	0.0974782	0.000000000000000E+000	0.0974782	0.0000000E+000	0.000000000000000E+000	0.00107357
2	0	0	0	0	0	0	398.296	-0.899966	-0.900324	-1.19378	-0.352356	-0.352356	11	-0.0978766	0	0.0978766	0.000000000000000E+000	0.0978766	0.0000000E+000	0.000000000000000E+000	0.00107479
2	0	0	0	0	0	0	399.496	-0.899966	-0.900362	-1.19849	-0.353793	-0.353793	11	-0.0982759	0	0.0982759	0.000000000000000E+000	0.0982759	0.0000000E+000	0.000000000000000E+000	0.00107908
2	0	0	0	0	0	0	400.696	-0.899966	-0.90042	-1.19956	-0.355232	-0.355232	11	-0.0986757	0	0.0986757	0.000000000000000E+000	0.0986757	0.0000000E+000	0.000000000000000E+000	0.00108011
2	0	0	0	0	0	0	401.896	-0.899966	-0.900401	-1.2007	-0.356673	-0.356673	11	-0.0990758	0	0.0990758	0.000000000000000E+000	0.0990758	0.0000000E+000	0.000000000000000E+000	0.00108111
2	0	0	0	0	0	0	403.096	-0.899966	-0.900305	-1.20209	-0.358116	-0.358116	11	-0.0994768	0	0.0994768	0.000000000000000E+000	0.0994768	0.0000000E+000	0.000000000000000E+000	0.00108225
2	0	0	0	0	0	0	404.296	-0.899966	-0.900362	-1.20411	-0.35956	-0.35956	11	-0.0998778	0	0.0998778	0.000000000000000E+000	0.0998778	0.0000000E+000	0.000000000000000E+000	0.00108414
2	0	0	0	0	0	0	405.496	-0.899966	-0.900343	-1.20325	-0.361004	-0.361004	11	-0.100279	0	0.100279	0.000000000000000E+000	0.100279	0.0000000E+000	0.000000000000000E+000	0.00108334
2	0	0	0	0	0	0	406.696	-0.899966	-0.900382	-1.20263	-0.362446	-0.362446	11	-0.100679	0	0.100679	0.000000000000000E+000	0.100679	0.0000000E+000	0.000000000000000E+000	0.00108283
2	0	0	0	0	0	0	407.896	-0.899966	-0.900343	-1.19694	-0.363886	-0.363886	11	-0.101079	0	0.101079	0.000000000000000E+000	0.101079	0.0000000E+000	0.000000000000000E+000	0.00107766
2	0	0	0	0	0	0	409.096	-0.899966	-0.900172	-1.20349	-0.365326	-0.365326	11	-0.101479	0	0.101479	0.000000000000000E+000	0.101479	0.0000000E+000	0.000000000000000E+000	0.00108335
2	0	0	0	0	0	0	410.296	-0.899966	-0.900477	-1.19334	-0.366766	-0.366766	11	-0.101879	0	0.101879	0.000000000000000E+000	0.101879	0.0000000E+000	0.000000000000000E+000	0.00107458
2	0	0	0	0	0	0	411.496	-0.899966	-0.900286	-1.19951	-0.368203	-0.368203	11	-0.102279	0	0.102279	0.000000000000000E+000	0.102279	0.0000000E+000	0.000000000000000E+000	0.00107991
2	0	0	0	0	0	0	412.696	-0.899966	-0.900382	-1.20299	-0.369646	-0.369646	11	-0.102679	0	0.102679	0.000000000000000E+000	0.102679	0.0000000E+000	0.000000000000000E+000	0.00108315
2	0	0	0	0	0	0	413.896	-0.899966	-0.900362	-1.23984	-0.371099	-0.371099	11	-0.103083	0	0.103083	0.000000000000000E+000	0.103083	0.0000000E+000	0.000000000000000E+000	0.00111631
2	0	0	0	0	0	0	415.096	-0.899966	-0.900343	-1.29795	-0.372625	-0.372625	11	-0.103507	0	0.103507	0.000000000000000E+000	0.103507	0.0000000E+000	0.000000000000000E+000	0.0011686
2	0	0	0	0	0	0	416.296	-0.899966	-0.900267	-1.31116	-0.37419	-0.37419	11	-0.103942	0	0.103942	0.000000000000000E+000	0.103942	0.0000000E+000	0.000000000000000E+000	0.00118039
2	0	0	0	0	0	0	417.496	-0.899966	-0.900324	-1.32625	-0.375776	-0.375776	11	-0.104382	0	0.104382	0.000000000000000E+000	0.104382	0.0000000E+000	0.000000000000000E+000	0.00119406
2	0	0	0	0	0	0	418.696	-0.899966	-0.900286	-1.33558	-0.377371	-0.377371	11	-0.104825	0	0.104825	0.000000000000000E+000	0.104825	0.0000000E+000	0.000000000000000E+000	0.0012024
2	0	0	0	0	0	0	419.896	-0.899966	-0.900343	-1.33487	-0.378974	-0.378974	11	-0.105271	0	0.105271	0.000000000000000E+000	0.105271	0.0000000E+000	0.000000000000000E+000	0.00120184
2	0	0	0	0	0	0	421.096	-0.899966	-0.900382	-1.34199	-0.380581	-0.380581	11	-0.105717	0	0.105717	0.000000000000000E+000	0.105717	0.0000000E+000	0.000000000000000E+000	0.00120831
2	0	0	0	0	0	0	422.296	-0.899966	-0.900324	-1.34525	-0.382193	-0.382193	11	-0.106165	0	0.106165	0.000000000000000E+000	0.106165	0.0000000E+000	0.000000000000000E+000	0.00121116
2	0	0	0	0	0	0	423.496	-0.899966	-0.900305	-1.34554	-0.383807	-0.383807	11	-0.106613	0	0.106613	0.000000000000000E+000	0.106613	0.0000000E+000	0.000000000000000E+000	0.0012114
2	0	0	0	0	0	0	424.696	-0.899966	-0.900191	-1.34413	-0.385421	-0.385421	11	-0.107061	0	0.107061	0.000000000000000E+000	0.107061	0.0000000E+000	0.000000000000000E+000	0.00120997
2	0	0	0	0	0	0	425.896	-0.899966	-0.900401	-1.34747	-0.387035	-0.387035	11	-0.10751	0	0.10751	0.000000000000000E+000	0.10751	0.0000000E+000	0.000000000000000E+000	0.00121326
2	0	0	0	0	0	0	427.096	-0.899966	-0.900286	-1.34743	-0.388651	-0.388651	11	-0.107958	0	0.107958	0.000000000000000E+000	0.107958	0.0000000E+000	0.000000000000000E+000	0.00121307
2	0	0	0	0	0	0	428.296	-0.899966	-0.900362	-1.3414	-0.390264	-0.390264	11	-0.108407	0	0.108407	0.000000000000000E+000	0.108407	0.0000000E+000	0.000000000000000E+000	0.00120775
2	0	0	0	0	0	0	429.496	-0.899966	-0.900286	-1.34777	-0.39188	-0.39188	11	-0.108856	0	0.108856	0.000000000000000E+000	0.108856	0.0000000E+000	0.000000000000000E+000	0.00121338
2	0	0	0	0	0	0	430.696	-0.899966	-0.900401	-1.34363	-0.393494	-0.393494	11	-0.109304	0	0.109304	0.000000000000000E+000	0.109304	0.0000000E+000	0.000000000000000E+000	0.0012098
2	0	0	0	0	0	0	431.896	-0.899966	-0.900324	-1.34678	-0.395107	-0.395107	11	-0.109752	0	0.109752	0.000000000000000E+000	0.109752	0.0000000E+000	0.000000000000000E+000	0.00121254
2	0	0	0	0	0	0	433.096	-0.899966	-0.900248	-1.34068	-0.396719	-0.396719	11	-0.1102	0	0.1102	0.000000000000000E+000	0.1102	0.0000000E+000	0.000000000000000E+000	0.00120694
2	0	0	0	0	0	0	434.296	-0.899966	-0.900305	-1.36631	-0.398334	-0.398334	11	-0.110648	0	0.110648	0.000000000000000E+000	0.110648	0.0000000E+000	0.000000000000000E+000	0.00123009
2	0	0	0	0	0	0	435.496	-0.899966	-0.900305	-1.42359	-0.400022	-0.400022	11	-0.111117	0	0.111117	0.000000000000000E+000	0.111117	0.0000000E+000	0.000000000000000E+000	0.00128166
2	0	0	0	0	0	0	436.696	-0.899966	-0.900477	-1.43521	-0.401741	-0.401741	11	-0.111595	0	0.111595	0.000000000000000E+000	0.111595	0.0000000E+000	0.000000000000000E+000	0.00129237
2	0	0	0	0	0	0	437.896	-0.899966	-0.900439	-1.43861	-0.403467	-0.403467	11	-0.112074	0	0.112074	0.000000000000000E+000	0.112074	0.0000000E+000	0.000000000000000E+000	0.00129538
2	0	0	0	0	0	0	439.096	-0.899966	-0.900343	-1.44718	-0.405201	-0.405201	11	-0.112556	0	0.112556	0.000000000000000E+000	0.112556	0.0000000E+000	0.000000000000000E+000	0.00130296
2	0	0	0	0	0	0	440.296	-0.899966	-0.900324	-1.44508	-0.406936	-0.406936	11	-0.113038	0	0.113038	0.000000000000000E+000	0.113038	0.0000000E+000	0.000000000000000E+000	0.00130104
2	0	0	0	0	0	0	441.496	-0.899966	-0.900305	-1.44587	-0.408671	-0.408671	11	-0.11352	0	0.11352	0.000000000000000E+000	0.11352	0.0000000E+000	0.000000000000000E+000	0.00130172
2	0	0	0	0	0	0	442.696	-0.899966	-0.900477	-1.45291	-0.410411	-0.410411	11	-0.114003	0	0.114003	0.000000000000000E+000	0.114003	0.0000000E+000	0.000000000000000E+000	0.00130831
2	0	0	0	0	0	0	443.896	-0.899966	-0.90042	-1.45451	-0.412151	-0.412151	11	-0.114486	0	0.114486	0.000000000000000E+000	0.114486	0.0000000E+000	0.000000000000000E+000	0.00130967
2	0	0	0	0	0	0	445.096	-0.899966	-0.90042	-1.45194	-0.413893	-0.413893	11	-0.11497	0	0.11497	0.000000000000000E+000	0.11497	0.0000000E+000	0.000000000000000E+000	0.00130735
2	0	0	0	0	0	0	446.296	-0.899966	-0.900267	-1.45376	-0.415633	-0.415633	11	-0.115454	0	0.115454	0.000000000000000E+000	0.115454	0.0000000E+000	0.000000000000000E+000	0.00130878
2	0	0	0	0	0	0	447.496	-0.899966	-0.900362	-1.45387	-0.417377	-0.417377	11	-0.115938	0	0.115938	0.000000000000000E+000	0.115938	0.0000000E+000	0.000000000000000E+000	0.00130901
2	0	0	0	0	0	0	448.696	-0.899966	-0.900496	-1.44822	-0.419119	-0.419119	11	-0.116422	0	0.116422	0.000000000000000E+000	0.116422	0.0000000E+000	0.000000000000000E+000	0.00130412
2	0	0	0	0	0	0	449.896	-0.899966	-0.900267	-1.44829	-0.420855	-0.420855	11	-0.116904	0	0.116904	0.000000000000000E+000	0.116904	0.0000000E+000	0.000000000000000E+000	0.00130385
2	0	0	0	0	0	0	451.096	-0.899966	-0.900401	-1.44461	-0.42259	-0.42259	11	-0.117386	0	0.117386	0.000000000000000E+000	0.117386	0.0000000E+000	0.000000000000000E+000	0.00130072
2	0	0	0	0	0	0	452.296	-0.899966	-0.900458	-1.443	-0.424322	-0.424322	11	-0.117867	0	0.117867	0.000000000000000E+000	0.117867	0.0000000E+000	0.000000000000000E+000	0.00129936
2	0	0	0	0	0	0	453.496	-0.899966	-0.900343	-1.44449	-0.426054	-0.426054	11	-0.118348	0	0.118348	0.000000000000000E+000	0.118348	0.0000000E+000	0.000000000000000E+000	0.00130053
2	0	0	0	0	0	0	454.696	-0.899966	-0.900343	-1.47129	-0.427791	-0.427791	11	-0.118831	0	0.118831	0.000000000000000E+000	0.118831	0.0000000E+000	0.000000000000000E+000	0.00132467
2	0	0	0	0	0	0	455.896	-0.899966	-0.900248	-1.55291	-0.429618	-0.429618	11	-0.119338	0	0.119338	0.000000000000000E+000	0.119338	0.0000000E+000	0.000000000000000E+000	0.00139801
2	0	0	0	0	0	0	457.096	-0.899966	-0.900286	-1.56353	-0.43149	-0.43149	11	-0.119858	0	0.119858	0.000000000000000E+000	0.119858	0.0000000E+000	0.000000000000000E+000	0.00140763
2	0	0	0	0	0	0	458.296	-0.899966	-0.900458	-1.56722	-0.433369	-0.433369	11	-0.12038	0	0.12038	0.000000000000000E+000	0.12038	0.0000000E+000	0.000000000000000E+000	0.00141121
2	0	0	0	0	0	0	459.496	-0.899966	-0.900401	-1.57514	-0.435254	-0.435254	11	-0.120904	0	0.120904	0.000000000000000E+000	0.120904	0.0000000E+000	0.000000000000000E+000	0.00141826
2	0	0	0	0	0	0	460.696	-0.899966	-0.900305	-1.57939	-0.437145	-0.437145	11	-0.121429	0	0.121429	0.000000000000000E+000	0.121429	0.0000000E+000	0.000000000000000E+000	0.00142193
2	0	0	0	0	0	0	461.896	-0.899966	-0.900172	-1.57603	-0.439037	-0.439037	11	-0.121955	0	0.121955	0.000000000000000E+000	0.121955	0.0000000E+000	0.000000000000000E+000	0.0014187
2	0	0	0	0	0	0	463.096	-0.899966	-0.900343	-1.57446	-0.440929	-0.440929	11	-0.12248	0	0.12248	0.000000000000000E+000	0.12248	0.0000000E+000	0.000000000000000E+000	0.00141755
2	0	0	0	0	0	0	464.296	-0.899966	-0.900382	-1.57339	-0.44282	-0.44282	11	-0.123005	0	0.123005	0.000000000000000E+000	0.123005	0.0000000E+000	0.000000000000000E+000	0.00141665
2	0	0	0	0	0	0	465.496	-0.899966	-0.900477	-1.5736	-0.44471	-0.44471	11	-0.12353	0	0.12353	0.000000000000000E+000	0.12353	0.0000000E+000	0.000000000000000E+000	0.00141699
2	0	0	0	0	0	0	466.696	-0.899966	-0.900515	-1.57362	-0.446599	-0.446599	11	-0.124055	0	0.124055	0.000000000000000E+000	0.124055	0.0000000E+000	0.000000000000000E+000	0.00141707
2	0	0	0	0	0	0	467.896	-0.899966	-0.900343	-1.57242	-0.448488	-0.448488	11	-0.12458	0	0.12458	0.000000000000000E+000	0.12458	0.0000000E+000	0.000000000000000E+000	0.00141572
2	0	0	0	0	0	0	469.096	-0.899966	-0.900362	-1.56807	-0.450372	-0.450372	11	-0.125103	0	0.125103	0.000000000000000E+000	0.125103	0.0000000E+000	0.000000000000000E+000	0.00141183
2	0	0	0	0	0	0	470.296	-0.899966	-0.900401	-1.57148	-0.452257	-0.452257	11	-0.125627	0	0.125627	0.000000000000000E+000	0.125627	0.0000000E+000	0.000000000000000E+000	0.00141496
2	0	0	0	0	0	0	471.496	-0.899966	-0.90042	-1.63012	-0.454174	-0.454174	11	-0.12616	0	0.12616	0.000000000000000E+000	0.12616	0.0000000E+000	0.000000000000000E+000	0.00146779
2	0	0	0	0	0	0	472.696	-0.899966	-0.900343	-1.64322	-0.45614	-0.45614	11	-0.126706	0	0.126706	0.000000000000000E+000	0.126706	0.0000000E+000	0.000000000000000E+000	0.00147946
2	0	0	0	0	0	0	473.896	-0.899966	-0.900305	-1.64321	-0.458112	-0.458112	11	-0.127253	0	0.127253	0.000000000000000E+000	0.127253	0.0000000E+000	0.000000000000000E+000	0.00147939
2	0	0	0	0	0	0	475.096	-0.899966	-0.90021	-1.64345	-0.460088	-0.460088	11	-0.127802	0	0.127802	0.000000000000000E+000	0.127802	0.0000000E+000	0.000000000000000E+000	0.00147945
2	0	0	0	0	0	0	476.296	-0.899966	-0.900401	-1.64939	-0.462066	-0.462066	11	-0.128352	0	0.128352	0.000000000000000E+000	0.128352	0.0000000E+000	0.000000000000000E+000	0.00148512
2	0	0	0	0	0	0	477.496	-0.899966	-0.900343	-1.64882	-0.464045	-0.464045	11	-0.128901	0	0.128901	0.000000000000000E+000	0.128901	0.0000000E+000	0.000000000000000E+000	0.00148451
2	0	0	0	0	0	0	478.696	-0.899966	-0.900286	-1.65066	-0.466023	-0.466023	11	-0.129451	0	0.129451	0.000000000000000E+000	0.129451	0.0000000E+000	0.000000000000000E+000	0.00148607
2	0	0	0	0	0	0	479.896	-0.899966	-0.900286	-1.64837	-0.468003	-0.468003	11	-0.130001	0	0.130001	0.000000000000000E+000	0.130001	0.0000000E+000	0.000000000000000E+000	0.001484
2	0	0	0	0	0	0	481.096	-0.899966	-0.900362	-1.64712	-0.469983	-0.469983	11	-0.130551	0	0.130551	0.000000000000000E+000	0.130551	0.0000000E+000	0.000000000000000E+000	0.00148301
2	0	0	0	0	0	0	482.296	-0.899966	-0.90042	-1.64698	-0.471961	-0.471961	11	-0.1311	0	0.1311	0.000000000000000E+000	0.1311	0.0000000E+000	0.000000000000000E+000	0.00148297
2	0	0	0	0	0	0	483.496	-0.899966	-0.900324	-1.64766	-0.473938	-0.473938	11	-0.13165	0	0.13165	0.000000000000000E+000	0.13165	0.0000000E+000	0.000000000000000E+000	0.00148343
2	0	0	0	0	0	0	484.696	-0.899966	-0.900362	-1.64911	-0.475915	-0.475915	11	-0.132199	0	0.132199	0.000000000000000E+000	0.132199	0.0000000E+000	0.000000000000000E+000	0.0014848
2	0	0	0	0	0	0	485.896	-0.899966	-0.900343	-1.64558	-0.477889	-0.477889	11	-0.132747	0	0.132747	0.000000000000000E+000	0.132747	0.0000000E+000	0.000000000000000E+000	0.00148158
2	0	0	0	0	0	0	487.096	-0.899966	-0.900191	-1.64514	-0.479862	-0.479862	11	-0.133295	0	0.133295	0.000000000000000E+000	0.133295	0.0000000E+000	0.000000000000000E+000	0.00148094
2	0	0	0	0	0	0	488.296	-0.899966	-0.900324	-1.63927	-0.481833	-0.481833	11	-0.133843	0	0.133843	0.000000000000000E+000	0.133843	0.0000000E+000	0.000000000000000E+000	0.00147587
2	0	0	0	0	0	0	489.496	-0.899966	-0.90042	-1.64162	-0.483803	-0.483803	11	-0.13439	0	0.13439	0.000000000000000E+000	0.13439	0.0000000E+000	0.000000000000000E+000	0.00147814
2	0	0	0	0	0	0	490.696	-0.899966	-0.900382	-1.76477	-0.485867	-0.485867	11	-0.134963	0	0.134963	0.000000000000000E+000	0.134963	0.0000000E+000	0.000000000000000E+000	0.00158897
2	0	0	0	0	0	0	491.896	-0.899966	-0.900439	-1.76382	-0.487983	-0.487983	11	-0.135551	0	0.135551	0.000000000000000E+000	0.135551	0.0000000E+000	0.000000000000000E+000	0.00158822
2	0	0	0	0	0	0	493.096	-0.899966	-0.900458	-1.76968	-0.490103	-0.490103	11	-0.13614	0	0.13614	0.000000000000000E+000	0.13614	0.0000000E+000	0.000000000000000E+000	0.00159352
2	0	0	0	0	0	0	494.296	-0.899966	-0.900382	-1.76655	-0.492224	-0.492224	11	-0.136729	0	0.136729	0.000000000000000E+000	0.136729	0.0000000E+000	0.000000000000000E+000	0.00159057
2	0	0	0	0	0	0	495.496	-0.899966	-0.90042	-1.76596	-0.494345	-0.494345	11	-0.137318	0	0.137318	0.000000000000000E+000	0.137318	0.0000000E+000	0.000000000000000E+000	0.00159011
2	0	0	0	0	0	0	496.696	-0.899966	-0.900401	-1.76807	-0.496469	-0.496469	11	-0.137908	0	0.137908	0.000000000000000E+000	0.137908	0.0000000E+000	0.000000000000000E+000	0.00159197
2	0	0	0	0	0	0	497.896	-0.899966	-0.900477	-1.76775	-0.49859	-0.49859	11	-0.138497	0	0.138497	0.000000000000000E+000	0.138497	0.0000000E+000	0.000000000000000E+000	0.00159182
2	0	0	0	0	0	0	499.096	-0.899966	-0.900343	-1.76425	-0.500711	-0.500711	11	-0.139086	0	0.139086	0.000000000000000E+000	0.139086	0.0000000E+000	0.000000000000000E+000	0.00158843
2	0	0	0	0	0	0	500.296	-0.899966	-0.900305	-1.76707	-0.50283	-0.50283	11	-0.139675	0	0.139675	0.000000000000000E+000	0.139675	0.0000000E+000	0.000000000000000E+000	0.00159091
2	0	0	0	0	0	0	501.496	-0.899966	-0.900401	-1.76404	-0.504949	-0.504949	11	-0.140264	0	0.140264	0.000000000000000E+000	0.140264	0.0000000E+000	0.000000000000000E+000	0.00158834
2	0	0	0	0	0	0	502.696	-0.899966	-0.900439	-1.76308	-0.507068	-0.507068	11	-0.140852	0	0.140852	0.000000000000000E+000	0.140852	0.0000000E+000	0.000000000000000E+000	0.00158754
2	0	0	0	0	0	0	503.896	-0.899966	-0.900496	-1.7634	-0.509185	-0.509185	11	-0.14144	0	0.14144	0.000000000000000E+000	0.14144	0.0000000E+000	0.000000000000000E+000	0.00158793
2	0	0	0	0	0	0	505.096	-0.899966	-0.90042	-1.76248	-0.511301	-0.511301	11	-0.142028	0	0.142028	0.000000000000000E+000	0.142028	0.0000000E+000	0.000000000000000E+000	0.00158697
2	0	0	0	0	0	0	506.296	-0.899966	-0.900382	-1.76319	-0.513414	-0.513414	11	-0.142615	0	0.142615	0.000000000000000E+000	0.142615	0.0000000E+000	0.000000000000000E+000	0.00158754
2	0	0	0	0	0	0	507.496	-0.899966	-0.900382	-1.76111	-0.515526	-0.515526	11	-0.143202	0	0.143202	0.000000000000000E+000	0.143202	0.0000000E+000	0.000000000000000E+000	0.00158567
2	0	0	0	0	0	0	508.696	-0.899966	-0.900286	-1.75835	-0.517637	-0.517637	11	-0.143788	0	0.143788	0.000000000000000E+000	0.143788	0.0000000E+000	0.000000000000000E+000	0.00158302
2	0	0	0	0	0	0	509.896	-0.899966	-0.900439	-1.75795	-0.519748	-0.519748	11	-0.144374	0	0.144374	0.000000000000000E+000	0.144374	0.0000000E+000	0.000000000000000E+000	0.00158293
2	0	0	0	0	0	0	511.096	-0.899966	-0.90021	-1.75473	-0.521856	-0.521856	11	-0.14496	0	0.14496	0.000000000000000E+000	0.14496	0.0000000E+000	0.000000000000000E+000	0.00157962
2	0	0	0	0	0	0	512.296	-0.899966	-0.900458	-1.75844	-0.523963	-0.523963	11	-0.145545	0	0.145545	0.000000000000000E+000	0.145545	0.0000000E+000	0.000000000000000E+000	0.0015834
2	0	0	0	0	0	0	513.496	-0.899966	-0.900382	-1.75637	-0.526069	-0.526069	11	-0.14613	0	0.14613	0.000000000000000E+000	0.14613	0.0000000E+000	0.000000000000000E+000	0.0015814
2	0	0	0	0	0	0	514.248	-0.899966	-0.900362	-1.75559	-0.527388	-0.527388	11	-0.146497	0	0.146497	0.000000000000000E+000	0.146497	0.0000000E+000	0.000000000000000E+000	0.00158067