File: ZnPVAECH_09 04-22-22-Zn -09 PVA ECH 1600 rpm K-L RDE1_03_CA_C05(1).mpt
EC-Lab ASCII FILE
Nb header lines : 63

Chronoamperometry / Chronocoulometry

Run on channel : 5 (SN 6729)
User :
CE vs. WE compliance from -10 V to 10 V
Electrode connection : standard
Potential control : Ewe
Ewe ctrl range : min = -2.50 V, max = 2.50 V
Safety Limits :
	Do not start on E overload
Acquisition started on : 04/04/2022 12:47:39.364
Technique started on : 04/04/2022 12:56:21.845
Loaded Setting File :  NONE
Saved on :
	File : 04-22-22-Zn PVA ECH 1600 rpm K-L RDE1_03_CA_C05.mpr
	Directory : \\research-scb.egr.msu.edu\research-scb\Mindy\Koutecky Levich\Zn PVA\ECH\04-04-22\
	Host : 35.9.136.210
Device : VSP (SN 0012)
Address : 35.9.137.65
EC-Lab for windows v11.43 (software)
Internet server v11.40 (firmware)
Command interpretor v11.40 (firmware)
Electrode material : Au/Pd
Initial state :
Electrolyte : NaCl (0.2M)
Comments : Fe(CN)63-/Fe(CN)64- 5.10-3 M
Reference electrode : SCE Saturated Calomel Electrode (0.241 V)
Electrode surface area : 0.196 cm²
Characteristic mass : 0.001 g
Equivalent Weight : 0.000 g/eq.
Density : 0.000 g/cm3
Volume (V) : 0.001 cm³
Cycle Definition : Charge/Discharge alternance
Ei (V)              -0.900
vs.                 Ref
ti (h:m:s)          0:10:0.0000
Imax                pass
unit Imax           mA
Imin                pass
unit Imin           mA
dQM                 0.000
unit dQM            mA.h
record              <I>
dI                  5.000
unit dI             µA
dQ                  0.000
unit dQ             mA.h
dt (s)              0.1000
dta (s)             0.1000
E range min (V)     -2.500
E range max (V)     2.500
I Range             Auto
I Range min         Unset
I Range max         Unset
I Range init        Unset
Bandwidth           5
goto Ns'            0
nc cycles           0

mode	ox/red	error	control changes	Ns changes	counter inc.	Ns	time/s	control/V	Ewe/V	<I>/mA	dQ/C	(Q-Qo)/C	I Range	Q charge/discharge/mA.h	half cycle	Q discharge/mA.h	Q charge/mA.h	Capacity/mA.h	Efficiency/%	cycle number	P/W
2	0	0	1	0	0	0	522.481	-0.899966	-0.900553	-4.82654	-0.000123839	-0.000123839	11	-3.43997e-05	0	3.43997e-05	0.000000000000000E+000	3.43997e-05	0.0000000E+000	0.000000000000000E+000	0.00434656
2	0	0	1	0	0	0	523.381	-0.899966	-0.90042	-4.58073	-0.00426658	-0.00426658	11	-0.00118516	0	0.00118516	0.000000000000000E+000	0.00118516	0.0000000E+000	0.000000000000000E+000	0.00412458
2	0	0	1	0	0	0	524.281	-0.899966	-0.900248	-4.49177	-0.00838049	-0.00838049	11	-0.00232791	0	0.00232791	0.000000000000000E+000	0.00232791	0.0000000E+000	0.000000000000000E+000	0.00404371
2	0	0	1	0	0	0	525.181	-0.899966	-0.90042	-4.37755	-0.0123481	-0.0123481	11	-0.00343002	0	0.00343002	0.000000000000000E+000	0.00343002	0.0000000E+000	0.000000000000000E+000	0.00394163
2	0	0	1	0	0	0	526.081	-0.899966	-0.900439	-4.35043	-0.0162793	-0.0162793	11	-0.00452204	0	0.00452204	0.000000000000000E+000	0.00452204	0.0000000E+000	0.000000000000000E+000	0.0039173
2	0	0	1	0	0	0	526.981	-0.899966	-0.900496	-4.33904	-0.0201929	-0.0201929	11	-0.00560915	0	0.00560915	0.000000000000000E+000	0.00560915	0.0000000E+000	0.000000000000000E+000	0.00390729
2	0	0	1	0	0	0	527.881	-0.899966	-0.900153	-4.33928	-0.024104	-0.024104	11	-0.00669557	0	0.00669557	0.000000000000000E+000	0.00669557	0.0000000E+000	0.000000000000000E+000	0.00390601
2	0	0	1	0	0	0	528.781	-0.899966	-0.900401	-4.33102	-0.0280096	-0.0280096	11	-0.00778046	0	0.00778046	0.000000000000000E+000	0.00778046	0.0000000E+000	0.000000000000000E+000	0.00389965
2	0	0	1	0	0	0	529.681	-0.899966	-0.900458	-4.32782	-0.0319097	-0.0319097	11	-0.0088638	0	0.0088638	0.000000000000000E+000	0.0088638	0.0000000E+000	0.000000000000000E+000	0.00389702
2	0	0	1	0	0	0	530.581	-0.899966	-0.90042	-4.33223	-0.0358104	-0.0358104	11	-0.00994734	0	0.00994734	0.000000000000000E+000	0.00994734	0.0000000E+000	0.000000000000000E+000	0.00390082
2	0	0	1	0	0	0	531.481	-0.899966	-0.900191	-4.32785	-0.039709	-0.039709	11	-0.0110303	0	0.0110303	0.000000000000000E+000	0.0110303	0.0000000E+000	0.000000000000000E+000	0.00389589
2	0	0	1	0	0	0	532.381	-0.899966	-0.900401	-4.32752	-0.0436052	-0.0436052	11	-0.0121126	0	0.0121126	0.000000000000000E+000	0.0121126	0.0000000E+000	0.000000000000000E+000	0.0038965
2	0	0	1	0	0	0	533.281	-0.899966	-0.900191	-4.32926	-0.0475017	-0.0475017	11	-0.0131949	0	0.0131949	0.000000000000000E+000	0.0131949	0.0000000E+000	0.000000000000000E+000	0.00389716
2	0	0	1	0	0	0	534.181	-0.899966	-0.900458	-4.32882	-0.0513984	-0.0513984	11	-0.0142773	0	0.0142773	0.000000000000000E+000	0.0142773	0.0000000E+000	0.000000000000000E+000	0.00389792
2	0	0	1	0	0	0	535.081	-0.899966	-0.900267	-4.32553	-0.0552928	-0.0552928	11	-0.0153591	0	0.0153591	0.000000000000000E+000	0.0153591	0.0000000E+000	0.000000000000000E+000	0.00389413
2	0	0	1	0	0	0	535.981	-0.899966	-0.90042	-4.32131	-0.0591815	-0.0591815	11	-0.0164393	0	0.0164393	0.000000000000000E+000	0.0164393	0.0000000E+000	0.000000000000000E+000	0.00389099
2	0	0	1	0	0	0	536.881	-0.899966	-0.900305	-4.32065	-0.063068	-0.063068	11	-0.0175189	0	0.0175189	0.000000000000000E+000	0.0175189	0.0000000E+000	0.000000000000000E+000	0.0038899
2	0	0	1	0	0	0	537.781	-0.899966	-0.900477	-4.31616	-0.066952	-0.066952	11	-0.0185978	0	0.0185978	0.000000000000000E+000	0.0185978	0.0000000E+000	0.000000000000000E+000	0.0038866
2	0	0	1	0	0	0	538.681	-0.899966	-0.900382	-4.03947	-0.070739	-0.070739	11	-0.0196497	0	0.0196497	0.000000000000000E+000	0.0196497	0.0000000E+000	0.000000000000000E+000	0.00363706
2	0	0	1	0	0	0	539.581	-0.899966	-0.899866	-4.01089	-0.0743489	-0.0743489	11	-0.0206525	0	0.0206525	0.000000000000000E+000	0.0206525	0.0000000E+000	0.000000000000000E+000	0.00360926
2	0	0	1	0	0	0	540.481	-0.899966	-0.900439	-3.99861	-0.0779519	-0.0779519	11	-0.0216533	0	0.0216533	0.000000000000000E+000	0.0216533	0.0000000E+000	0.000000000000000E+000	0.00360051
2	0	0	1	0	0	0	541.381	-0.899966	-0.900553	-3.97675	-0.0815394	-0.0815394	11	-0.0226498	0	0.0226498	0.000000000000000E+000	0.0226498	0.0000000E+000	0.000000000000000E+000	0.00358127
2	0	0	1	0	0	0	542.281	-0.899966	-0.900286	-3.98566	-0.0851252	-0.0851252	11	-0.0236459	0	0.0236459	0.000000000000000E+000	0.0236459	0.0000000E+000	0.000000000000000E+000	0.00358823
2	0	0	1	0	0	0	543.181	-0.899966	-0.900649	-3.97443	-0.0887073	-0.0887073	11	-0.0246409	0	0.0246409	0.000000000000000E+000	0.0246409	0.0000000E+000	0.000000000000000E+000	0.00357957
2	0	0	1	0	0	0	544.081	-0.899966	-0.900343	-3.98388	-0.0922891	-0.0922891	11	-0.0256359	0	0.0256359	0.000000000000000E+000	0.0256359	0.0000000E+000	0.000000000000000E+000	0.00358686
2	0	0	1	0	0	0	544.981	-0.899966	-0.900382	-3.9731	-0.0958679	-0.0958679	11	-0.02663	0	0.02663	0.000000000000000E+000	0.02663	0.0000000E+000	0.000000000000000E+000	0.00357731
2	0	0	1	0	0	0	545.881	-0.899966	-0.900611	-3.97299	-0.0994445	-0.0994445	11	-0.0276235	0	0.0276235	0.000000000000000E+000	0.0276235	0.0000000E+000	0.000000000000000E+000	0.00357812
2	0	0	1	0	0	0	546.781	-0.899966	-0.900401	-3.97427	-0.103017	-0.103017	11	-0.0286159	0	0.0286159	0.000000000000000E+000	0.0286159	0.0000000E+000	0.000000000000000E+000	0.00357844
2	0	0	1	0	0	0	547.681	-0.899966	-0.900343	-3.96311	-0.106589	-0.106589	11	-0.029608	0	0.029608	0.000000000000000E+000	0.029608	0.0000000E+000	0.000000000000000E+000	0.00356816
2	0	0	1	0	0	0	548.581	-0.899966	-0.900343	-3.96693	-0.110158	-0.110158	11	-0.0305994	0	0.0305994	0.000000000000000E+000	0.0305994	0.0000000E+000	0.000000000000000E+000	0.0035716
2	0	0	1	0	0	0	549.481	-0.899966	-0.900324	-3.95663	-0.113725	-0.113725	11	-0.0315904	0	0.0315904	0.000000000000000E+000	0.0315904	0.0000000E+000	0.000000000000000E+000	0.00356225
2	0	0	1	0	0	0	550.381	-0.899966	-0.900553	-3.96436	-0.11729	-0.11729	11	-0.0325804	0	0.0325804	0.000000000000000E+000	0.0325804	0.0000000E+000	0.000000000000000E+000	0.00357012
2	0	0	1	0	0	0	551.281	-0.899966	-0.900382	-3.95269	-0.12085	-0.12085	11	-0.0335694	0	0.0335694	0.000000000000000E+000	0.0335694	0.0000000E+000	0.000000000000000E+000	0.00355893
2	0	0	1	0	0	0	552.181	-0.899966	-0.900477	-3.95788	-0.12441	-0.12441	11	-0.0345582	0	0.0345582	0.000000000000000E+000	0.0345582	0.0000000E+000	0.000000000000000E+000	0.00356398
2	0	0	1	0	0	0	553.081	-0.899966	-0.90042	-3.95093	-0.127965	-0.127965	11	-0.0355458	0	0.0355458	0.000000000000000E+000	0.0355458	0.0000000E+000	0.000000000000000E+000	0.00355749
2	0	0	1	0	0	0	553.981	-0.899966	-0.900324	-3.94376	-0.13152	-0.13152	11	-0.0365332	0	0.0365332	0.000000000000000E+000	0.0365332	0.0000000E+000	0.000000000000000E+000	0.00355066
2	0	0	1	0	0	0	554.881	-0.899966	-0.900458	-3.95154	-0.135072	-0.135072	11	-0.0375201	0	0.0375201	0.000000000000000E+000	0.0375201	0.0000000E+000	0.000000000000000E+000	0.00355819
2	0	0	1	0	0	0	555.781	-0.899966	-0.900324	-3.93724	-0.138625	-0.138625	11	-0.0385068	0	0.0385068	0.000000000000000E+000	0.0385068	0.0000000E+000	0.000000000000000E+000	0.0035448
2	0	0	1	0	0	0	556.681	-0.899966	-0.900553	-3.95006	-0.142176	-0.142176	11	-0.0394933	0	0.0394933	0.000000000000000E+000	0.0394933	0.0000000E+000	0.000000000000000E+000	0.00355724
2	0	0	1	0	0	0	557.581	-0.899966	-0.900439	-3.93538	-0.145721	-0.145721	11	-0.0404781	0	0.0404781	0.000000000000000E+000	0.0404781	0.0000000E+000	0.000000000000000E+000	0.00354357
2	0	0	1	0	0	0	558.481	-0.899966	-0.900382	-3.93838	-0.149263	-0.149263	11	-0.0414621	0	0.0414621	0.000000000000000E+000	0.0414621	0.0000000E+000	0.000000000000000E+000	0.00354605
2	0	0	1	0	0	0	559.381	-0.899966	-0.900248	-3.9348	-0.152807	-0.152807	11	-0.0424465	0	0.0424465	0.000000000000000E+000	0.0424465	0.0000000E+000	0.000000000000000E+000	0.0035423
2	0	0	1	0	0	0	560.281	-0.899966	-0.900401	-3.93716	-0.156353	-0.156353	11	-0.0434313	0	0.0434313	0.000000000000000E+000	0.0434313	0.0000000E+000	0.000000000000000E+000	0.00354502
2	0	0	1	0	0	0	561.181	-0.899966	-0.900382	-3.94281	-0.159896	-0.159896	11	-0.0444157	0	0.0444157	0.000000000000000E+000	0.0444157	0.0000000E+000	0.000000000000000E+000	0.00355003
2	0	0	1	0	0	0	562.081	-0.899966	-0.900095	-3.93021	-0.163437	-0.163437	11	-0.0453992	0	0.0453992	0.000000000000000E+000	0.0453992	0.0000000E+000	0.000000000000000E+000	0.00353757
2	0	0	1	0	0	0	562.981	-0.899966	-0.900458	-3.94062	-0.166975	-0.166975	11	-0.0463821	0	0.0463821	0.000000000000000E+000	0.0463821	0.0000000E+000	0.000000000000000E+000	0.00354836
2	0	0	1	0	0	0	563.881	-0.899966	-0.900439	-3.9311	-0.170515	-0.170515	11	-0.0473654	0	0.0473654	0.000000000000000E+000	0.0473654	0.0000000E+000	0.000000000000000E+000	0.00353971
2	0	0	1	0	0	0	564.781	-0.899966	-0.900343	-3.94282	-0.17406	-0.17406	11	-0.0483499	0	0.0483499	0.000000000000000E+000	0.0483499	0.0000000E+000	0.000000000000000E+000	0.00354989
2	0	0	1	0	0	0	565.681	-0.899966	-0.900286	-3.93104	-0.177604	-0.177604	11	-0.0493344	0	0.0493344	0.000000000000000E+000	0.0493344	0.0000000E+000	0.000000000000000E+000	0.00353906
2	0	0	1	0	0	0	566.581	-0.899966	-0.900515	-3.93665	-0.181146	-0.181146	11	-0.0503182	0	0.0503182	0.000000000000000E+000	0.0503182	0.0000000E+000	0.000000000000000E+000	0.00354501
2	0	0	1	0	0	0	567.481	-0.899966	-0.900496	-3.93427	-0.184686	-0.184686	11	-0.0513016	0	0.0513016	0.000000000000000E+000	0.0513016	0.0000000E+000	0.000000000000000E+000	0.0035428
2	0	0	1	0	0	0	568.381	-0.899966	-0.900382	-3.85328	-0.188205	-0.188205	11	-0.052279	0	0.052279	0.000000000000000E+000	0.052279	0.0000000E+000	0.000000000000000E+000	0.00346942
2	0	0	1	0	0	0	569.281	-0.899966	-0.900458	-3.73984	-0.191601	-0.191601	11	-0.0532225	0	0.0532225	0.000000000000000E+000	0.0532225	0.0000000E+000	0.000000000000000E+000	0.00336757
2	0	0	1	0	0	0	570.181	-0.899966	-0.900458	-3.71695	-0.194953	-0.194953	11	-0.0541535	0	0.0541535	0.000000000000000E+000	0.0541535	0.0000000E+000	0.000000000000000E+000	0.00334695
2	0	0	1	0	0	0	571.081	-0.899966	-0.900496	-3.70519	-0.198292	-0.198292	11	-0.0550811	0	0.0550811	0.000000000000000E+000	0.0550811	0.0000000E+000	0.000000000000000E+000	0.00333651
2	0	0	1	0	0	0	571.981	-0.899966	-0.900477	-3.67557	-0.201607	-0.201607	11	-0.0560019	0	0.0560019	0.000000000000000E+000	0.0560019	0.0000000E+000	0.000000000000000E+000	0.00330976
2	0	0	1	0	0	0	572.881	-0.899966	-0.900382	-3.67101	-0.204913	-0.204913	11	-0.0569204	0	0.0569204	0.000000000000000E+000	0.0569204	0.0000000E+000	0.000000000000000E+000	0.00330531
2	0	0	1	0	0	0	573.781	-0.899966	-0.900553	-3.66827	-0.208219	-0.208219	11	-0.0578386	0	0.0578386	0.000000000000000E+000	0.0578386	0.0000000E+000	0.000000000000000E+000	0.00330347
2	0	0	1	0	0	0	574.681	-0.899966	-0.900439	-3.65431	-0.211513	-0.211513	11	-0.0587536	0	0.0587536	0.000000000000000E+000	0.0587536	0.0000000E+000	0.000000000000000E+000	0.00329049
2	0	0	1	0	0	0	575.581	-0.899966	-0.90063	-3.64637	-0.2148	-0.2148	11	-0.0596668	0	0.0596668	0.000000000000000E+000	0.0596668	0.0000000E+000	0.000000000000000E+000	0.00328403
2	0	0	1	0	0	0	576.481	-0.899966	-0.900324	-3.64763	-0.218084	-0.218084	11	-0.0605788	0	0.0605788	0.000000000000000E+000	0.0605788	0.0000000E+000	0.000000000000000E+000	0.00328405
2	0	0	1	0	0	0	577.381	-0.899966	-0.900286	-3.64459	-0.221367	-0.221367	11	-0.0614908	0	0.0614908	0.000000000000000E+000	0.0614908	0.0000000E+000	0.000000000000000E+000	0.00328117
2	0	0	1	0	0	0	578.281	-0.899966	-0.900286	-3.64756	-0.224648	-0.224648	11	-0.0624023	0	0.0624023	0.000000000000000E+000	0.0624023	0.0000000E+000	0.000000000000000E+000	0.00328385
2	0	0	1	0	0	0	579.181	-0.899966	-0.900458	-3.64145	-0.227927	-0.227927	11	-0.0633131	0	0.0633131	0.000000000000000E+000	0.0633131	0.0000000E+000	0.000000000000000E+000	0.00327898
2	0	0	1	0	0	0	580.081	-0.899966	-0.900057	-3.64291	-0.231206	-0.231206	11	-0.0642238	0	0.0642238	0.000000000000000E+000	0.0642238	0.0000000E+000	0.000000000000000E+000	0.00327882
2	0	0	1	0	0	0	580.981	-0.899966	-0.900305	-3.65121	-0.234489	-0.234489	11	-0.0651359	0	0.0651359	0.000000000000000E+000	0.0651359	0.0000000E+000	0.000000000000000E+000	0.00328721
2	0	0	1	0	0	0	581.881	-0.899966	-0.900649	-3.65924	-0.237779	-0.237779	11	-0.0660496	0	0.0660496	0.000000000000000E+000	0.0660496	0.0000000E+000	0.000000000000000E+000	0.00329569
2	0	0	1	0	0	0	582.781	-0.899966	-0.90021	-3.63671	-0.241051	-0.241051	11	-0.0669587	0	0.0669587	0.000000000000000E+000	0.0669587	0.0000000E+000	0.000000000000000E+000	0.0032738
2	0	0	1	0	0	0	583.681	-0.899966	-0.900496	-3.63369	-0.244323	-0.244323	11	-0.0678675	0	0.0678675	0.000000000000000E+000	0.0678675	0.0000000E+000	0.000000000000000E+000	0.00327213
2	0	0	1	0	0	0	584.581	-0.899966	-0.900515	-3.63418	-0.247595	-0.247595	11	-0.0687763	0	0.0687763	0.000000000000000E+000	0.0687763	0.0000000E+000	0.000000000000000E+000	0.00327264
2	0	0	1	0	0	0	585.481	-0.899966	-0.900439	-3.63719	-0.250865	-0.250865	11	-0.0696847	0	0.0696847	0.000000000000000E+000	0.0696847	0.0000000E+000	0.000000000000000E+000	0.00327506
2	0	0	1	0	0	0	586.381	-0.899966	-0.900229	-3.63193	-0.254136	-0.254136	11	-0.0705933	0	0.0705933	0.000000000000000E+000	0.0705933	0.0000000E+000	0.000000000000000E+000	0.00326957
2	0	0	1	0	0	0	587.281	-0.899966	-0.90042	-3.63136	-0.257404	-0.257404	11	-0.071501	0	0.071501	0.000000000000000E+000	0.071501	0.0000000E+000	0.000000000000000E+000	0.00326974
2	0	0	1	0	0	0	588.181	-0.899966	-0.900343	-3.62671	-0.260668	-0.260668	11	-0.0724077	0	0.0724077	0.000000000000000E+000	0.0724077	0.0000000E+000	0.000000000000000E+000	0.00326528
2	0	0	1	0	0	0	589.081	-0.899966	-0.900477	-3.47602	-0.263883	-0.263883	11	-0.0733009	0	0.0733009	0.000000000000000E+000	0.0733009	0.0000000E+000	0.000000000000000E+000	0.00313008
2	0	0	1	0	0	0	589.981	-0.899966	-0.900362	-3.28486	-0.266893	-0.266893	11	-0.0741369	0	0.0741369	0.000000000000000E+000	0.0741369	0.0000000E+000	0.000000000000000E+000	0.00295757
2	0	0	1	0	0	0	590.881	-0.899966	-0.900439	-3.22942	-0.269808	-0.269808	11	-0.0749466	0	0.0749466	0.000000000000000E+000	0.0749466	0.0000000E+000	0.000000000000000E+000	0.00290789
2	0	0	1	0	0	0	591.781	-0.899966	-0.900343	-3.18359	-0.272684	-0.272684	11	-0.0757455	0	0.0757455	0.000000000000000E+000	0.0757455	0.0000000E+000	0.000000000000000E+000	0.00286632
2	0	0	1	0	0	0	592.681	-0.899966	-0.900477	-3.16188	-0.275536	-0.275536	11	-0.0765377	0	0.0765377	0.000000000000000E+000	0.0765377	0.0000000E+000	0.000000000000000E+000	0.0028472
2	0	0	1	0	0	0	593.581	-0.899966	-0.900324	-3.15808	-0.278385	-0.278385	11	-0.0773292	0	0.0773292	0.000000000000000E+000	0.0773292	0.0000000E+000	0.000000000000000E+000	0.0028433
2	0	0	1	0	0	0	594.481	-0.899966	-0.900305	-3.15173	-0.281239	-0.281239	11	-0.0781219	0	0.0781219	0.000000000000000E+000	0.0781219	0.0000000E+000	0.000000000000000E+000	0.00283752
2	0	0	1	0	0	0	595.381	-0.899966	-0.900248	-3.1499	-0.284082	-0.284082	11	-0.0789116	0	0.0789116	0.000000000000000E+000	0.0789116	0.0000000E+000	0.000000000000000E+000	0.00283569
2	0	0	1	0	0	0	596.281	-0.899966	-0.900515	-3.14426	-0.286923	-0.286923	11	-0.0797009	0	0.0797009	0.000000000000000E+000	0.0797009	0.0000000E+000	0.000000000000000E+000	0.00283145
2	0	0	1	0	0	0	597.181	-0.899966	-0.900534	-3.13896	-0.289764	-0.289764	11	-0.08049	0	0.08049	0.000000000000000E+000	0.08049	0.0000000E+000	0.000000000000000E+000	0.00282674
2	0	0	1	0	0	0	598.081	-0.899966	-0.900649	-3.13907	-0.292601	-0.292601	11	-0.0812781	0	0.0812781	0.000000000000000E+000	0.0812781	0.0000000E+000	0.000000000000000E+000	0.0028272
2	0	0	1	0	0	0	598.981	-0.899966	-0.900286	-3.13758	-0.295443	-0.295443	11	-0.0820675	0	0.0820675	0.000000000000000E+000	0.0820675	0.0000000E+000	0.000000000000000E+000	0.00282472
2	0	0	1	0	0	0	599.881	-0.899966	-0.900382	-3.14341	-0.298283	-0.298283	11	-0.0828565	0	0.0828565	0.000000000000000E+000	0.0828565	0.0000000E+000	0.000000000000000E+000	0.00283026
2	0	0	1	0	0	0	600.781	-0.899966	-0.90021	-3.14503	-0.301117	-0.301117	11	-0.0836436	0	0.0836436	0.000000000000000E+000	0.0836436	0.0000000E+000	0.000000000000000E+000	0.00283119
2	0	0	1	0	0	0	601.681	-0.899966	-0.900248	-3.13351	-0.303943	-0.303943	11	-0.0844286	0	0.0844286	0.000000000000000E+000	0.0844286	0.0000000E+000	0.000000000000000E+000	0.00282093
2	0	0	1	0	0	0	602.581	-0.899966	-0.900324	-3.14017	-0.306764	-0.306764	11	-0.0852123	0	0.0852123	0.000000000000000E+000	0.0852123	0.0000000E+000	0.000000000000000E+000	0.00282717
2	0	0	1	0	0	0	603.481	-0.899966	-0.90042	-3.02879	-0.30956	-0.30956	11	-0.0859889	0	0.0859889	0.000000000000000E+000	0.0859889	0.0000000E+000	0.000000000000000E+000	0.00272718
2	0	0	1	0	0	0	604.381	-0.899966	-0.900439	-2.88937	-0.312215	-0.312215	11	-0.0867264	0	0.0867264	0.000000000000000E+000	0.0867264	0.0000000E+000	0.000000000000000E+000	0.0026017
2	0	0	1	0	0	0	605.281	-0.899966	-0.900172	-2.86712	-0.314797	-0.314797	11	-0.0874437	0	0.0874437	0.000000000000000E+000	0.0874437	0.0000000E+000	0.000000000000000E+000	0.0025809
2	0	0	1	0	0	0	606.181	-0.899966	-0.900324	-2.82566	-0.317348	-0.317348	11	-0.0881522	0	0.0881522	0.000000000000000E+000	0.0881522	0.0000000E+000	0.000000000000000E+000	0.00254401
2	0	0	1	0	0	0	607.081	-0.899966	-0.900496	-2.8065	-0.319884	-0.319884	11	-0.0888567	0	0.0888567	0.000000000000000E+000	0.0888567	0.0000000E+000	0.000000000000000E+000	0.00252724
2	0	0	1	0	0	0	607.981	-0.899966	-0.900343	-2.81451	-0.322421	-0.322421	11	-0.0895613	0	0.0895613	0.000000000000000E+000	0.0895613	0.0000000E+000	0.000000000000000E+000	0.00253402
2	0	0	1	0	0	0	608.881	-0.899966	-0.900592	-2.817	-0.324947	-0.324947	11	-0.090263	0	0.090263	0.000000000000000E+000	0.090263	0.0000000E+000	0.000000000000000E+000	0.00253697
2	0	0	1	0	0	0	609.781	-0.899966	-0.900229	-2.79121	-0.327468	-0.327468	11	-0.0909633	0	0.0909633	0.000000000000000E+000	0.0909633	0.0000000E+000	0.000000000000000E+000	0.00251273
2	0	0	1	0	0	0	610.681	-0.899966	-0.900458	-2.78167	-0.329984	-0.329984	11	-0.0916622	0	0.0916622	0.000000000000000E+000	0.0916622	0.0000000E+000	0.000000000000000E+000	0.00250478
2	0	0	1	0	0	0	611.581	-0.899966	-0.900477	-2.8014	-0.332491	-0.332491	11	-0.0923585	0	0.0923585	0.000000000000000E+000	0.0923585	0.0000000E+000	0.000000000000000E+000	0.00252259
2	0	0	1	0	0	0	612.481	-0.899966	-0.900382	-2.77843	-0.334992	-0.334992	11	-0.0930533	0	0.0930533	0.000000000000000E+000	0.0930533	0.0000000E+000	0.000000000000000E+000	0.00250165
2	0	0	1	0	0	0	613.381	-0.899966	-0.900477	-2.75887	-0.337491	-0.337491	11	-0.0937474	0	0.0937474	0.000000000000000E+000	0.0937474	0.0000000E+000	0.000000000000000E+000	0.0024843
2	0	0	1	0	0	0	614.281	-0.899966	-0.900305	-2.77578	-0.339985	-0.339985	11	-0.0944404	0	0.0944404	0.000000000000000E+000	0.0944404	0.0000000E+000	0.000000000000000E+000	0.00249905
2	0	0	1	0	0	0	615.181	-0.899966	-0.900305	-2.7708	-0.342475	-0.342475	11	-0.0951319	0	0.0951319	0.000000000000000E+000	0.0951319	0.0000000E+000	0.000000000000000E+000	0.00249456
2	0	0	1	0	0	0	616.081	-0.899966	-0.900439	-2.75653	-0.344963	-0.344963	11	-0.095823	0	0.095823	0.000000000000000E+000	0.095823	0.0000000E+000	0.000000000000000E+000	0.00248209
2	0	0	1	0	0	0	616.981	-0.899966	-0.900382	-2.76266	-0.347452	-0.347452	11	-0.0965146	0	0.0965146	0.000000000000000E+000	0.0965146	0.0000000E+000	0.000000000000000E+000	0.00248744
2	0	0	1	0	0	0	617.881	-0.899966	-0.900458	-2.78528	-0.349945	-0.349945	11	-0.097207	0	0.097207	0.000000000000000E+000	0.097207	0.0000000E+000	0.000000000000000E+000	0.00250802
2	0	0	1	0	0	0	618.781	-0.899966	-0.900592	-2.76883	-0.352438	-0.352438	11	-0.0978995	0	0.0978995	0.000000000000000E+000	0.0978995	0.0000000E+000	0.000000000000000E+000	0.00249359
2	0	0	1	0	0	0	619.681	-0.899966	-0.900553	-2.75745	-0.354932	-0.354932	11	-0.0985921	0	0.0985921	0.000000000000000E+000	0.0985921	0.0000000E+000	0.000000000000000E+000	0.00248323
2	0	0	1	0	0	0	620.581	-0.899966	-0.900382	-2.77872	-0.357427	-0.357427	11	-0.0992853	0	0.0992853	0.000000000000000E+000	0.0992853	0.0000000E+000	0.000000000000000E+000	0.00250191
2	0	0	1	0	0	0	621.481	-0.899966	-0.900477	-2.76758	-0.359918	-0.359918	11	-0.0999771	0	0.0999771	0.000000000000000E+000	0.0999771	0.0000000E+000	0.000000000000000E+000	0.00249214
2	0	0	1	0	0	0	622.381	-0.899966	-0.90042	-2.75551	-0.362403	-0.362403	11	-0.100668	0	0.100668	0.000000000000000E+000	0.100668	0.0000000E+000	0.000000000000000E+000	0.00248111
2	0	0	1	0	0	0	623.281	-0.899966	-0.900382	-2.76587	-0.364891	-0.364891	11	-0.101359	0	0.101359	0.000000000000000E+000	0.101359	0.0000000E+000	0.000000000000000E+000	0.00249034
2	0	0	1	0	0	0	624.181	-0.899966	-0.900382	-2.78464	-0.367386	-0.367386	11	-0.102052	0	0.102052	0.000000000000000E+000	0.102052	0.0000000E+000	0.000000000000000E+000	0.00250724
2	0	0	1	0	0	0	625.081	-0.899966	-0.900191	-2.76038	-0.369876	-0.369876	11	-0.102743	0	0.102743	0.000000000000000E+000	0.102743	0.0000000E+000	0.000000000000000E+000	0.00248487
2	0	0	1	0	0	0	625.981	-0.899966	-0.900458	-2.74332	-0.372364	-0.372364	11	-0.103434	0	0.103434	0.000000000000000E+000	0.103434	0.0000000E+000	0.000000000000000E+000	0.00247024
2	0	0	1	0	0	0	626.881	-0.899966	-0.900477	-2.60969	-0.374788	-0.374788	11	-0.104108	0	0.104108	0.000000000000000E+000	0.104108	0.0000000E+000	0.000000000000000E+000	0.00234997
2	0	0	1	0	0	0	627.781	-0.899966	-0.900362	-2.49979	-0.377068	-0.377068	11	-0.104741	0	0.104741	0.000000000000000E+000	0.104741	0.0000000E+000	0.000000000000000E+000	0.00225072
2	0	0	1	0	0	0	628.681	-0.899966	-0.900401	-2.44499	-0.379275	-0.379275	11	-0.105354	0	0.105354	0.000000000000000E+000	0.105354	0.0000000E+000	0.000000000000000E+000	0.00220147
2	0	0	1	0	0	0	629.581	-0.899966	-0.900382	-2.4111	-0.381445	-0.381445	11	-0.105957	0	0.105957	0.000000000000000E+000	0.105957	0.0000000E+000	0.000000000000000E+000	0.00217091
2	0	0	1	0	0	0	630.481	-0.899966	-0.900458	-2.37763	-0.383577	-0.383577	11	-0.106549	0	0.106549	0.000000000000000E+000	0.106549	0.0000000E+000	0.000000000000000E+000	0.00214095
2	0	0	1	0	0	0	631.381	-0.899966	-0.900382	-2.36346	-0.385706	-0.385706	11	-0.107141	0	0.107141	0.000000000000000E+000	0.107141	0.0000000E+000	0.000000000000000E+000	0.00212802
2	0	0	1	0	0	0	632.281	-0.899966	-0.900496	-2.35255	-0.387831	-0.387831	11	-0.107731	0	0.107731	0.000000000000000E+000	0.107731	0.0000000E+000	0.000000000000000E+000	0.00211846
2	0	0	1	0	0	0	633.181	-0.899966	-0.900458	-2.34877	-0.389951	-0.389951	11	-0.10832	0	0.10832	0.000000000000000E+000	0.10832	0.0000000E+000	0.000000000000000E+000	0.00211497
2	0	0	1	0	0	0	634.081	-0.899966	-0.90021	-2.34139	-0.392063	-0.392063	11	-0.108906	0	0.108906	0.000000000000000E+000	0.108906	0.0000000E+000	0.000000000000000E+000	0.00210774
2	0	0	1	0	0	0	634.981	-0.899966	-0.900458	-2.33739	-0.39417	-0.39417	11	-0.109492	0	0.109492	0.000000000000000E+000	0.109492	0.0000000E+000	0.000000000000000E+000	0.00210472
2	0	0	1	0	0	0	635.881	-0.899966	-0.900343	-2.33102	-0.396273	-0.396273	11	-0.110076	0	0.110076	0.000000000000000E+000	0.110076	0.0000000E+000	0.000000000000000E+000	0.00209872
2	0	0	1	0	0	0	636.781	-0.899966	-0.900305	-2.32386	-0.398373	-0.398373	11	-0.110659	0	0.110659	0.000000000000000E+000	0.110659	0.0000000E+000	0.000000000000000E+000	0.00209218
2	0	0	1	0	0	0	637.681	-0.899966	-0.900343	-2.33069	-0.40048	-0.40048	11	-0.111244	0	0.111244	0.000000000000000E+000	0.111244	0.0000000E+000	0.000000000000000E+000	0.00209842
2	0	0	1	0	0	0	638.581	-0.899966	-0.900496	-2.32498	-0.402582	-0.402582	11	-0.111828	0	0.111828	0.000000000000000E+000	0.111828	0.0000000E+000	0.000000000000000E+000	0.00209363
2	0	0	1	0	0	0	639.481	-0.899966	-0.900324	-2.32941	-0.404677	-0.404677	11	-0.11241	0	0.11241	0.000000000000000E+000	0.11241	0.0000000E+000	0.000000000000000E+000	0.00209722
2	0	0	1	0	0	0	640.381	-0.899966	-0.900343	-2.33803	-0.406764	-0.406764	11	-0.11299	0	0.11299	0.000000000000000E+000	0.11299	0.0000000E+000	0.000000000000000E+000	0.00210503
2	0	0	1	0	0	0	641.281	-0.899966	-0.900458	-2.32451	-0.408848	-0.408848	11	-0.113569	0	0.113569	0.000000000000000E+000	0.113569	0.0000000E+000	0.000000000000000E+000	0.00209312
2	0	0	1	0	0	0	642.181	-0.899966	-0.900401	-2.25837	-0.410906	-0.410906	11	-0.11414	0	0.11414	0.000000000000000E+000	0.11414	0.0000000E+000	0.000000000000000E+000	0.00203344
2	0	0	1	0	0	0	643.081	-0.899966	-0.900458	-2.1941	-0.41291	-0.41291	11	-0.114697	0	0.114697	0.000000000000000E+000	0.114697	0.0000000E+000	0.000000000000000E+000	0.0019757
2	0	0	1	0	0	0	643.981	-0.899966	-0.900382	-2.13583	-0.414852	-0.414852	11	-0.115237	0	0.115237	0.000000000000000E+000	0.115237	0.0000000E+000	0.000000000000000E+000	0.00192307
2	0	0	1	0	0	0	644.881	-0.899966	-0.900324	-2.11465	-0.416767	-0.416767	11	-0.115769	0	0.115769	0.000000000000000E+000	0.115769	0.0000000E+000	0.000000000000000E+000	0.00190387
2	0	0	1	0	0	0	645.781	-0.899966	-0.90042	-2.08503	-0.418658	-0.418658	11	-0.116294	0	0.116294	0.000000000000000E+000	0.116294	0.0000000E+000	0.000000000000000E+000	0.0018774
2	0	0	1	0	0	0	646.681	-0.899966	-0.900401	-2.08119	-0.420537	-0.420537	11	-0.116816	0	0.116816	0.000000000000000E+000	0.116816	0.0000000E+000	0.000000000000000E+000	0.00187391
2	0	0	1	0	0	0	647.581	-0.899966	-0.900343	-2.0631	-0.422403	-0.422403	11	-0.117334	0	0.117334	0.000000000000000E+000	0.117334	0.0000000E+000	0.000000000000000E+000	0.0018575
2	0	0	1	0	0	0	648.481	-0.899966	-0.900458	-2.07298	-0.424261	-0.424261	11	-0.11785	0	0.11785	0.000000000000000E+000	0.11785	0.0000000E+000	0.000000000000000E+000	0.00186664
2	0	0	1	0	0	0	649.381	-0.899966	-0.900305	-2.04843	-0.426114	-0.426114	11	-0.118365	0	0.118365	0.000000000000000E+000	0.118365	0.0000000E+000	0.000000000000000E+000	0.00184421
2	0	0	1	0	0	0	650.281	-0.899966	-0.900401	-2.06235	-0.427964	-0.427964	11	-0.118879	0	0.118879	0.000000000000000E+000	0.118879	0.0000000E+000	0.000000000000000E+000	0.00185694
2	0	0	1	0	0	0	651.181	-0.899966	-0.900401	-2.04923	-0.429809	-0.429809	11	-0.119391	0	0.119391	0.000000000000000E+000	0.119391	0.0000000E+000	0.000000000000000E+000	0.00184513
2	0	0	1	0	0	0	652.081	-0.899966	-0.900343	-2.05517	-0.431649	-0.431649	11	-0.119903	0	0.119903	0.000000000000000E+000	0.119903	0.0000000E+000	0.000000000000000E+000	0.00185036
2	0	0	1	0	0	0	652.981	-0.899966	-0.900362	-2.03902	-0.433487	-0.433487	11	-0.120413	0	0.120413	0.000000000000000E+000	0.120413	0.0000000E+000	0.000000000000000E+000	0.00183586
2	0	0	1	0	0	0	653.881	-0.899966	-0.900362	-2.04398	-0.435321	-0.435321	11	-0.120922	0	0.120922	0.000000000000000E+000	0.120922	0.0000000E+000	0.000000000000000E+000	0.00184032
2	0	0	1	0	0	0	654.781	-0.899966	-0.900382	-2.03098	-0.437152	-0.437152	11	-0.121431	0	0.121431	0.000000000000000E+000	0.121431	0.0000000E+000	0.000000000000000E+000	0.00182866
2	0	0	1	0	0	0	655.681	-0.899966	-0.900553	-2.06542	-0.438997	-0.438997	11	-0.121943	0	0.121943	0.000000000000000E+000	0.121943	0.0000000E+000	0.000000000000000E+000	0.00186002
2	0	0	1	0	0	0	656.581	-0.899966	-0.900324	-2.11573	-0.440869	-0.440869	11	-0.122464	0	0.122464	0.000000000000000E+000	0.122464	0.0000000E+000	0.000000000000000E+000	0.00190484
2	0	0	1	0	0	0	657.481	-0.899966	-0.900477	-2.18815	-0.4428	-0.4428	11	-0.123	0	0.123	0.000000000000000E+000	0.123	0.0000000E+000	0.000000000000000E+000	0.00197038
2	0	0	1	0	0	0	658.381	-0.899966	-0.900382	-2.22543	-0.444778	-0.444778	11	-0.123549	0	0.123549	0.000000000000000E+000	0.123549	0.0000000E+000	0.000000000000000E+000	0.00200374
2	0	0	1	0	0	0	659.281	-0.899966	-0.900248	-2.24516	-0.446787	-0.446787	11	-0.124107	0	0.124107	0.000000000000000E+000	0.124107	0.0000000E+000	0.000000000000000E+000	0.0020212
2	0	0	1	0	0	0	660.181	-0.899966	-0.900305	-2.24959	-0.448813	-0.448813	11	-0.12467	0	0.12467	0.000000000000000E+000	0.12467	0.0000000E+000	0.000000000000000E+000	0.00202532
2	0	0	1	0	0	0	661.081	-0.899966	-0.900515	-2.26656	-0.450851	-0.450851	11	-0.125236	0	0.125236	0.000000000000000E+000	0.125236	0.0000000E+000	0.000000000000000E+000	0.00204108
2	0	0	1	0	0	0	661.981	-0.899966	-0.900534	-2.27065	-0.452894	-0.452894	11	-0.125804	0	0.125804	0.000000000000000E+000	0.125804	0.0000000E+000	0.000000000000000E+000	0.0020448
2	0	0	1	0	0	0	662.881	-0.899966	-0.900286	-2.27466	-0.454943	-0.454943	11	-0.126373	0	0.126373	0.000000000000000E+000	0.126373	0.0000000E+000	0.000000000000000E+000	0.00204784
2	0	0	1	0	0	0	663.781	-0.899966	-0.900191	-2.26882	-0.456992	-0.456992	11	-0.126942	0	0.126942	0.000000000000000E+000	0.126942	0.0000000E+000	0.000000000000000E+000	0.00204237
2	0	0	1	0	0	0	664.681	-0.899966	-0.900439	-2.27457	-0.459047	-0.459047	11	-0.127513	0	0.127513	0.000000000000000E+000	0.127513	0.0000000E+000	0.000000000000000E+000	0.00204811
2	0	0	1	0	0	0	665.581	-0.899966	-0.900382	-2.27225	-0.461098	-0.461098	11	-0.128083	0	0.128083	0.000000000000000E+000	0.128083	0.0000000E+000	0.000000000000000E+000	0.00204589
2	0	0	1	0	0	0	666.481	-0.899966	-0.900401	-2.26856	-0.463147	-0.463147	11	-0.128652	0	0.128652	0.000000000000000E+000	0.128652	0.0000000E+000	0.000000000000000E+000	0.00204261
2	0	0	1	0	0	0	667.381	-0.899966	-0.900286	-2.27622	-0.465193	-0.465193	11	-0.12922	0	0.12922	0.000000000000000E+000	0.12922	0.0000000E+000	0.000000000000000E+000	0.00204925
2	0	0	1	0	0	0	668.281	-0.899966	-0.900439	-2.28506	-0.46724	-0.46724	11	-0.129789	0	0.129789	0.000000000000000E+000	0.129789	0.0000000E+000	0.000000000000000E+000	0.00205756
2	0	0	1	0	0	0	669.181	-0.899966	-0.900496	-2.28008	-0.469285	-0.469285	11	-0.130357	0	0.130357	0.000000000000000E+000	0.130357	0.0000000E+000	0.000000000000000E+000	0.0020532
2	0	0	1	0	0	0	670.081	-0.899966	-0.900229	-2.27614	-0.471328	-0.471328	11	-0.130924	0	0.130924	0.000000000000000E+000	0.130924	0.0000000E+000	0.000000000000000E+000	0.00204905
2	0	0	1	0	0	0	670.981	-0.899966	-0.90042	-2.27847	-0.473369	-0.473369	11	-0.131491	0	0.131491	0.000000000000000E+000	0.131491	0.0000000E+000	0.000000000000000E+000	0.00205158
2	0	0	1	0	0	0	671.881	-0.899966	-0.900305	-2.26504	-0.475412	-0.475412	11	-0.132059	0	0.132059	0.000000000000000E+000	0.132059	0.0000000E+000	0.000000000000000E+000	0.00203923
2	0	0	1	0	0	0	672.781	-0.899966	-0.900439	-2.49134	-0.477548	-0.477548	11	-0.132652	0	0.132652	0.000000000000000E+000	0.132652	0.0000000E+000	0.000000000000000E+000	0.0022433
2	0	0	1	0	0	0	673.681	-0.899966	-0.90042	-2.59834	-0.479859	-0.479859	11	-0.133294	0	0.133294	0.000000000000000E+000	0.133294	0.0000000E+000	0.000000000000000E+000	0.0023396
2	0	0	1	0	0	0	674.581	-0.899966	-0.900439	-2.6451	-0.482228	-0.482228	11	-0.133952	0	0.133952	0.000000000000000E+000	0.133952	0.0000000E+000	0.000000000000000E+000	0.00238175
2	0	0	1	0	0	0	675.481	-0.899966	-0.900286	-2.65432	-0.484614	-0.484614	11	-0.134615	0	0.134615	0.000000000000000E+000	0.134615	0.0000000E+000	0.000000000000000E+000	0.00238965
2	0	0	1	0	0	0	676.381	-0.899966	-0.900343	-2.66533	-0.487016	-0.487016	11	-0.135282	0	0.135282	0.000000000000000E+000	0.135282	0.0000000E+000	0.000000000000000E+000	0.00239971
2	0	0	1	0	0	0	677.281	-0.899966	-0.900191	-2.68804	-0.489423	-0.489423	11	-0.135951	0	0.135951	0.000000000000000E+000	0.135951	0.0000000E+000	0.000000000000000E+000	0.00241975
2	0	0	1	0	0	0	678.181	-0.899966	-0.900382	-2.68026	-0.491829	-0.491829	11	-0.136619	0	0.136619	0.000000000000000E+000	0.136619	0.0000000E+000	0.000000000000000E+000	0.00241325
2	0	0	1	0	0	0	679.081	-0.899966	-0.900343	-2.6741	-0.494242	-0.494242	11	-0.137289	0	0.137289	0.000000000000000E+000	0.137289	0.0000000E+000	0.000000000000000E+000	0.00240761
2	0	0	1	0	0	0	679.981	-0.899966	-0.90042	-2.68848	-0.496659	-0.496659	11	-0.137961	0	0.137961	0.000000000000000E+000	0.137961	0.0000000E+000	0.000000000000000E+000	0.00242076
2	0	0	1	0	0	0	680.881	-0.899966	-0.900343	-2.70475	-0.499081	-0.499081	11	-0.138634	0	0.138634	0.000000000000000E+000	0.138634	0.0000000E+000	0.000000000000000E+000	0.00243521
2	0	0	1	0	0	0	681.781	-0.899966	-0.900592	-2.68787	-0.501506	-0.501506	11	-0.139307	0	0.139307	0.000000000000000E+000	0.139307	0.0000000E+000	0.000000000000000E+000	0.00242067
2	0	0	1	0	0	0	682.681	-0.899966	-0.900095	-2.69027	-0.503936	-0.503936	11	-0.139982	0	0.139982	0.000000000000000E+000	0.139982	0.0000000E+000	0.000000000000000E+000	0.0024215
2	0	0	1	0	0	0	683.581	-0.899966	-0.90042	-2.71615	-0.506368	-0.506368	11	-0.140658	0	0.140658	0.000000000000000E+000	0.140658	0.0000000E+000	0.000000000000000E+000	0.00244568
2	0	0	1	0	0	0	684.481	-0.899966	-0.900573	-2.70178	-0.508799	-0.508799	11	-0.141333	0	0.141333	0.000000000000000E+000	0.141333	0.0000000E+000	0.000000000000000E+000	0.00243315
2	0	0	1	0	0	0	685.381	-0.899966	-0.900592	-2.69394	-0.511232	-0.511232	11	-0.142009	0	0.142009	0.000000000000000E+000	0.142009	0.0000000E+000	0.000000000000000E+000	0.00242614
2	0	0	1	0	0	0	686.281	-0.899966	-0.900382	-2.71923	-0.51367	-0.51367	11	-0.142686	0	0.142686	0.000000000000000E+000	0.142686	0.0000000E+000	0.000000000000000E+000	0.00244834
2	0	0	1	0	0	0	687.181	-0.899966	-0.900343	-2.71705	-0.516107	-0.516107	11	-0.143363	0	0.143363	0.000000000000000E+000	0.143363	0.0000000E+000	0.000000000000000E+000	0.00244628
2	0	0	1	0	0	0	688.081	-0.899966	-0.90042	-2.70261	-0.518547	-0.518547	11	-0.144041	0	0.144041	0.000000000000000E+000	0.144041	0.0000000E+000	0.000000000000000E+000	0.00243348
2	0	0	1	0	0	0	688.981	-0.899966	-0.900343	-2.70787	-0.520989	-0.520989	11	-0.144719	0	0.144719	0.000000000000000E+000	0.144719	0.0000000E+000	0.000000000000000E+000	0.00243801
2	0	0	1	0	0	0	689.881	-0.899966	-0.900496	-2.74562	-0.523444	-0.523444	11	-0.145401	0	0.145401	0.000000000000000E+000	0.145401	0.0000000E+000	0.000000000000000E+000	0.00247242
2	0	0	1	0	0	0	690.781	-0.899966	-0.900401	-2.71231	-0.52589	-0.52589	11	-0.146081	0	0.146081	0.000000000000000E+000	0.146081	0.0000000E+000	0.000000000000000E+000	0.00244217
2	0	0	1	0	0	0	691.681	-0.899966	-0.900439	-2.68913	-0.528326	-0.528326	11	-0.146757	0	0.146757	0.000000000000000E+000	0.146757	0.0000000E+000	0.000000000000000E+000	0.0024214
2	0	0	1	0	0	0	692.581	-0.899966	-0.900439	-2.69948	-0.530756	-0.530756	11	-0.147432	0	0.147432	0.000000000000000E+000	0.147432	0.0000000E+000	0.000000000000000E+000	0.00243071
2	0	0	1	0	0	0	693.481	-0.899966	-0.900305	-2.6961	-0.53318	-0.53318	11	-0.148105	0	0.148105	0.000000000000000E+000	0.148105	0.0000000E+000	0.000000000000000E+000	0.00242731
2	0	0	1	0	0	0	694.381	-0.899966	-0.90042	-2.90171	-0.535689	-0.535689	11	-0.148803	0	0.148803	0.000000000000000E+000	0.148803	0.0000000E+000	0.000000000000000E+000	0.00261276
2	0	0	1	0	0	0	695.281	-0.899966	-0.900382	-2.98561	-0.538349	-0.538349	11	-0.149541	0	0.149541	0.000000000000000E+000	0.149541	0.0000000E+000	0.000000000000000E+000	0.00268819
2	0	0	1	0	0	0	696.181	-0.899966	-0.900439	-3.0442	-0.541072	-0.541072	11	-0.150298	0	0.150298	0.000000000000000E+000	0.150298	0.0000000E+000	0.000000000000000E+000	0.00274112
2	0	0	1	0	0	0	697.081	-0.899966	-0.900401	-3.05985	-0.543826	-0.543826	11	-0.151063	0	0.151063	0.000000000000000E+000	0.151063	0.0000000E+000	0.000000000000000E+000	0.00275509
2	0	0	1	0	0	0	697.981	-0.899966	-0.900496	-3.05894	-0.546588	-0.546588	11	-0.15183	0	0.15183	0.000000000000000E+000	0.15183	0.0000000E+000	0.000000000000000E+000	0.00275456
2	0	0	1	0	0	0	698.881	-0.899966	-0.900477	-3.06634	-0.549357	-0.549357	11	-0.152599	0	0.152599	0.000000000000000E+000	0.152599	0.0000000E+000	0.000000000000000E+000	0.00276117
2	0	0	1	0	0	0	699.781	-0.899966	-0.900496	-3.06765	-0.552125	-0.552125	11	-0.153368	0	0.153368	0.000000000000000E+000	0.153368	0.0000000E+000	0.000000000000000E+000	0.0027624
2	0	0	1	0	0	0	700.681	-0.899966	-0.90042	-3.07187	-0.5549	-0.5549	11	-0.154139	0	0.154139	0.000000000000000E+000	0.154139	0.0000000E+000	0.000000000000000E+000	0.00276597
2	0	0	1	0	0	0	701.581	-0.899966	-0.900401	-3.07814	-0.557675	-0.557675	11	-0.15491	0	0.15491	0.000000000000000E+000	0.15491	0.0000000E+000	0.000000000000000E+000	0.00277156
2	0	0	1	0	0	0	702.481	-0.899966	-0.90042	-3.08762	-0.560453	-0.560453	11	-0.155681	0	0.155681	0.000000000000000E+000	0.155681	0.0000000E+000	0.000000000000000E+000	0.00278016
2	0	0	1	0	0	0	703.381	-0.899966	-0.900477	-3.06879	-0.563225	-0.563225	11	-0.156451	0	0.156451	0.000000000000000E+000	0.156451	0.0000000E+000	0.000000000000000E+000	0.00276338
2	0	0	1	0	0	0	704.281	-0.899966	-0.90042	-3.07498	-0.565992	-0.565992	11	-0.15722	0	0.15722	0.000000000000000E+000	0.15722	0.0000000E+000	0.000000000000000E+000	0.00276878
2	0	0	1	0	0	0	705.181	-0.899966	-0.900954	-3.08613	-0.568761	-0.568761	11	-0.157989	0	0.157989	0.000000000000000E+000	0.157989	0.0000000E+000	0.000000000000000E+000	0.00278046
2	0	0	1	0	0	0	706.081	-0.899966	-0.900286	-3.08773	-0.571531	-0.571531	11	-0.158758	0	0.158758	0.000000000000000E+000	0.158758	0.0000000E+000	0.000000000000000E+000	0.00277984
2	0	0	1	0	0	0	706.981	-0.899966	-0.900515	-3.08921	-0.5743	-0.5743	11	-0.159528	0	0.159528	0.000000000000000E+000	0.159528	0.0000000E+000	0.000000000000000E+000	0.00278188
2	0	0	1	0	0	0	707.881	-0.899966	-0.900553	-3.10731	-0.577074	-0.577074	11	-0.160298	0	0.160298	0.000000000000000E+000	0.160298	0.0000000E+000	0.000000000000000E+000	0.0027983
2	0	0	1	0	0	0	708.781	-0.899966	-0.900534	-3.47212	-0.580042	-0.580042	11	-0.161123	0	0.161123	0.000000000000000E+000	0.161123	0.0000000E+000	0.000000000000000E+000	0.00312676
2	0	0	1	0	0	0	709.681	-0.899966	-0.900172	-3.59008	-0.583238	-0.583238	11	-0.162011	0	0.162011	0.000000000000000E+000	0.162011	0.0000000E+000	0.000000000000000E+000	0.00323169
2	0	0	1	0	0	0	710.581	-0.899966	-0.900133	-3.60457	-0.586479	-0.586479	11	-0.162911	0	0.162911	0.000000000000000E+000	0.162911	0.0000000E+000	0.000000000000000E+000	0.00324459
2	0	0	1	0	0	0	711.481	-0.899966	-0.900286	-3.63508	-0.589737	-0.589737	11	-0.163816	0	0.163816	0.000000000000000E+000	0.163816	0.0000000E+000	0.000000000000000E+000	0.00327261
2	0	0	1	0	0	0	712.381	-0.899966	-0.900305	-3.64736	-0.593019	-0.593019	11	-0.164728	0	0.164728	0.000000000000000E+000	0.164728	0.0000000E+000	0.000000000000000E+000	0.00328374
2	0	0	1	0	0	0	713.281	-0.899966	-0.900248	-3.65082	-0.596307	-0.596307	11	-0.165641	0	0.165641	0.000000000000000E+000	0.165641	0.0000000E+000	0.000000000000000E+000	0.00328665
2	0	0	1	0	0	0	714.181	-0.899966	-0.900592	-3.64243	-0.599595	-0.599595	11	-0.166554	0	0.166554	0.000000000000000E+000	0.166554	0.0000000E+000	0.000000000000000E+000	0.00328034
2	0	0	1	0	0	0	715.081	-0.899966	-0.900515	-3.65221	-0.60288	-0.60288	11	-0.167467	0	0.167467	0.000000000000000E+000	0.167467	0.0000000E+000	0.000000000000000E+000	0.00328887
2	0	0	1	0	0	0	715.981	-0.899966	-0.900458	-3.64562	-0.606167	-0.606167	11	-0.16838	0	0.16838	0.000000000000000E+000	0.16838	0.0000000E+000	0.000000000000000E+000	0.00328272
2	0	0	1	0	0	0	716.881	-0.899966	-0.900401	-3.62985	-0.609442	-0.609442	11	-0.16929	0	0.16929	0.000000000000000E+000	0.16929	0.0000000E+000	0.000000000000000E+000	0.00326832
2	0	0	1	0	0	0	717.781	-0.899966	-0.900267	-3.62524	-0.612707	-0.612707	11	-0.170196	0	0.170196	0.000000000000000E+000	0.170196	0.0000000E+000	0.000000000000000E+000	0.00326368
2	0	0	1	0	0	0	718.681	-0.899966	-0.900114	-3.61732	-0.615965	-0.615965	11	-0.171101	0	0.171101	0.000000000000000E+000	0.171101	0.0000000E+000	0.000000000000000E+000	0.003256
2	0	0	1	0	0	0	719.581	-0.899966	-0.900382	-3.62072	-0.619224	-0.619224	11	-0.172007	0	0.172007	0.000000000000000E+000	0.172007	0.0000000E+000	0.000000000000000E+000	0.00326003
2	0	0	1	0	0	0	720.481	-0.899966	-0.900286	-3.6318	-0.622482	-0.622482	11	-0.172912	0	0.172912	0.000000000000000E+000	0.172912	0.0000000E+000	0.000000000000000E+000	0.00326966
2	0	0	1	0	0	0	721.381	-0.899966	-0.900248	-3.6269	-0.62575	-0.62575	11	-0.173819	0	0.173819	0.000000000000000E+000	0.173819	0.0000000E+000	0.000000000000000E+000	0.00326511
2	0	0	1	0	0	0	722.281	-0.899966	-0.900267	-3.78623	-0.629076	-0.629076	11	-0.174743	0	0.174743	0.000000000000000E+000	0.174743	0.0000000E+000	0.000000000000000E+000	0.00340862
2	0	0	1	0	0	0	723.181	-0.899966	-0.900095	-3.85595	-0.632536	-0.632536	11	-0.175704	0	0.175704	0.000000000000000E+000	0.175704	0.0000000E+000	0.000000000000000E+000	0.00347073
2	0	0	1	0	0	0	724.081	-0.899966	-0.900477	-3.88129	-0.636025	-0.636025	11	-0.176674	0	0.176674	0.000000000000000E+000	0.176674	0.0000000E+000	0.000000000000000E+000	0.00349501
2	0	0	1	0	0	0	724.981	-0.899966	-0.900439	-3.88673	-0.639523	-0.639523	11	-0.177645	0	0.177645	0.000000000000000E+000	0.177645	0.0000000E+000	0.000000000000000E+000	0.00349976
2	0	0	1	0	0	0	725.881	-0.899966	-0.90042	-3.89849	-0.643028	-0.643028	11	-0.178619	0	0.178619	0.000000000000000E+000	0.178619	0.0000000E+000	0.000000000000000E+000	0.00351028
2	0	0	1	0	0	0	726.781	-0.899966	-0.900362	-3.87541	-0.646525	-0.646525	11	-0.17959	0	0.17959	0.000000000000000E+000	0.17959	0.0000000E+000	0.000000000000000E+000	0.00348927
2	0	0	1	0	0	0	727.681	-0.899966	-0.90042	-3.87854	-0.650017	-0.650017	11	-0.18056	0	0.18056	0.000000000000000E+000	0.18056	0.0000000E+000	0.000000000000000E+000	0.00349232
2	0	0	1	0	0	0	728.581	-0.899966	-0.900324	-3.88339	-0.653511	-0.653511	11	-0.181531	0	0.181531	0.000000000000000E+000	0.181531	0.0000000E+000	0.000000000000000E+000	0.00349631
2	0	0	1	0	0	0	729.481	-0.899966	-0.90021	-3.88244	-0.657006	-0.657006	11	-0.182502	0	0.182502	0.000000000000000E+000	0.182502	0.0000000E+000	0.000000000000000E+000	0.00349501
2	0	0	1	0	0	0	730.381	-0.899966	-0.900229	-3.88923	-0.6605	-0.6605	11	-0.183472	0	0.183472	0.000000000000000E+000	0.183472	0.0000000E+000	0.000000000000000E+000	0.00350119
2	0	0	1	0	0	0	731.281	-0.899966	-0.900305	-3.87039	-0.663989	-0.663989	11	-0.184441	0	0.184441	0.000000000000000E+000	0.184441	0.0000000E+000	0.000000000000000E+000	0.00348453
2	0	0	1	0	0	0	732.181	-0.899966	-0.900611	-3.88253	-0.667478	-0.667478	11	-0.18541	0	0.18541	0.000000000000000E+000	0.18541	0.0000000E+000	0.000000000000000E+000	0.00349665
2	0	0	1	0	0	0	733.081	-0.899966	-0.900401	-3.86988	-0.670967	-0.670967	11	-0.18638	0	0.18638	0.000000000000000E+000	0.18638	0.0000000E+000	0.000000000000000E+000	0.00348444
2	0	0	1	0	0	0	733.981	-0.899966	-0.900458	-3.8768	-0.674453	-0.674453	11	-0.187348	0	0.187348	0.000000000000000E+000	0.187348	0.0000000E+000	0.000000000000000E+000	0.00349089
2	0	0	1	0	0	0	734.881	-0.899966	-0.900305	-3.8716	-0.677934	-0.677934	11	-0.188315	0	0.188315	0.000000000000000E+000	0.188315	0.0000000E+000	0.000000000000000E+000	0.00348562
2	0	0	1	0	0	0	735.781	-0.899966	-0.900458	-3.8612	-0.681415	-0.681415	11	-0.189282	0	0.189282	0.000000000000000E+000	0.189282	0.0000000E+000	0.000000000000000E+000	0.00347685
2	0	0	1	0	0	0	736.681	-0.899966	-0.900382	-3.87078	-0.684894	-0.684894	11	-0.190248	0	0.190248	0.000000000000000E+000	0.190248	0.0000000E+000	0.000000000000000E+000	0.00348518
2	0	0	1	0	0	0	737.581	-0.899966	-0.900229	-3.86425	-0.688374	-0.688374	11	-0.191215	0	0.191215	0.000000000000000E+000	0.191215	0.0000000E+000	0.000000000000000E+000	0.00347871
2	0	0	1	0	0	0	738.481	-0.899966	-0.900153	-3.86962	-0.691855	-0.691855	11	-0.192182	0	0.192182	0.000000000000000E+000	0.192182	0.0000000E+000	0.000000000000000E+000	0.00348325
2	0	0	1	0	0	0	739.381	-0.899966	-0.900191	-4.21667	-0.695442	-0.695442	11	-0.193178	0	0.193178	0.000000000000000E+000	0.193178	0.0000000E+000	0.000000000000000E+000	0.00379581
2	0	0	1	0	0	0	740.281	-0.899966	-0.900324	-4.25536	-0.699275	-0.699275	11	-0.194243	0	0.194243	0.000000000000000E+000	0.194243	0.0000000E+000	0.000000000000000E+000	0.0038312
2	0	0	1	0	0	0	741.181	-0.899966	-0.900439	-4.2393	-0.703097	-0.703097	11	-0.195305	0	0.195305	0.000000000000000E+000	0.195305	0.0000000E+000	0.000000000000000E+000	0.00381723
2	0	0	1	0	0	0	742.081	-0.899966	-0.900267	-4.23705	-0.706913	-0.706913	11	-0.196365	0	0.196365	0.000000000000000E+000	0.196365	0.0000000E+000	0.000000000000000E+000	0.00381448
2	0	0	1	0	0	0	742.981	-0.899966	-0.90021	-4.23367	-0.710725	-0.710725	11	-0.197424	0	0.197424	0.000000000000000E+000	0.197424	0.0000000E+000	0.000000000000000E+000	0.00381119
2	0	0	1	0	0	0	743.881	-0.899966	-0.900382	-4.23546	-0.714536	-0.714536	11	-0.198482	0	0.198482	0.000000000000000E+000	0.198482	0.0000000E+000	0.000000000000000E+000	0.00381353
2	0	0	1	0	0	0	744.781	-0.899966	-0.900783	-4.22776	-0.718348	-0.718348	11	-0.199541	0	0.199541	0.000000000000000E+000	0.199541	0.0000000E+000	0.000000000000000E+000	0.00380829
2	0	0	1	0	0	0	745.681	-0.899966	-0.900553	-4.22292	-0.722155	-0.722155	11	-0.200599	0	0.200599	0.000000000000000E+000	0.200599	0.0000000E+000	0.000000000000000E+000	0.00380297
2	0	0	1	0	0	0	746.581	-0.899966	-0.900439	-4.23164	-0.725963	-0.725963	11	-0.201656	0	0.201656	0.000000000000000E+000	0.201656	0.0000000E+000	0.000000000000000E+000	0.00381034
2	0	0	1	0	0	0	747.481	-0.899966	-0.900076	-4.22765	-0.729771	-0.729771	11	-0.202714	0	0.202714	0.000000000000000E+000	0.202714	0.0000000E+000	0.000000000000000E+000	0.00380521
2	0	0	1	0	0	0	748.381	-0.899966	-0.900382	-4.22673	-0.733579	-0.733579	11	-0.203772	0	0.203772	0.000000000000000E+000	0.203772	0.0000000E+000	0.000000000000000E+000	0.00380567
2	0	0	1	0	0	0	749.281	-0.899966	-0.900553	-4.22308	-0.737384	-0.737384	11	-0.204829	0	0.204829	0.000000000000000E+000	0.204829	0.0000000E+000	0.000000000000000E+000	0.00380311
2	0	0	1	0	0	0	750.181	-0.899966	-0.900248	-4.24463	-0.741194	-0.741194	11	-0.205887	0	0.205887	0.000000000000000E+000	0.205887	0.0000000E+000	0.000000000000000E+000	0.00382122
2	0	0	1	0	0	0	751.081	-0.899966	-0.90042	-4.25421	-0.745022	-0.745022	11	-0.20695	0	0.20695	0.000000000000000E+000	0.20695	0.0000000E+000	0.000000000000000E+000	0.00383058
2	0	0	1	0	0	0	751.981	-0.899966	-0.900267	-4.26139	-0.748856	-0.748856	11	-0.208015	0	0.208015	0.000000000000000E+000	0.208015	0.0000000E+000	0.000000000000000E+000	0.00383639
2	0	0	1	0	0	0	752.881	-0.899966	-0.900324	-4.25147	-0.752686	-0.752686	11	-0.209079	0	0.209079	0.000000000000000E+000	0.209079	0.0000000E+000	0.000000000000000E+000	0.0038277
2	0	0	1	0	0	0	753.781	-0.899966	-0.900401	-4.24632	-0.756509	-0.756509	11	-0.210141	0	0.210141	0.000000000000000E+000	0.210141	0.0000000E+000	0.000000000000000E+000	0.00382339
2	0	0	1	0	0	0	754.681	-0.899966	-0.900343	-4.1964	-0.760303	-0.760303	11	-0.211195	0	0.211195	0.000000000000000E+000	0.211195	0.0000000E+000	0.000000000000000E+000	0.0037782
2	0	0	1	0	0	0	755.581	-0.899966	-0.90021	-4.18841	-0.764077	-0.764077	11	-0.212244	0	0.212244	0.000000000000000E+000	0.212244	0.0000000E+000	0.000000000000000E+000	0.00377045
2	0	0	1	0	0	0	756.481	-0.899966	-0.900286	-4.18311	-0.767843	-0.767843	11	-0.21329	0	0.21329	0.000000000000000E+000	0.21329	0.0000000E+000	0.000000000000000E+000	0.003766
2	0	0	1	0	0	0	757.381	-0.899966	-0.900324	-4.18024	-0.771605	-0.771605	11	-0.214335	0	0.214335	0.000000000000000E+000	0.214335	0.0000000E+000	0.000000000000000E+000	0.00376357
2	0	0	1	0	0	0	758.281	-0.899966	-0.900916	-4.18026	-0.775363	-0.775363	11	-0.215378	0	0.215378	0.000000000000000E+000	0.215378	0.0000000E+000	0.000000000000000E+000	0.00376607
2	0	0	1	0	0	0	759.181	-0.899966	-0.900286	-4.18994	-0.779121	-0.779121	11	-0.216423	0	0.216423	0.000000000000000E+000	0.216423	0.0000000E+000	0.000000000000000E+000	0.00377214
2	0	0	1	0	0	0	759.471	-0.899966	-0.900362	-4.16608	-0.78033	-0.78033	11	-0.216758	0	0.216758	0.000000000000000E+000	0.216758	0.0000000E+000	0.000000000000000E+000	0.00375098