File: ZnPVAGAECH_08 03-23-22-ZnPVAGA ECH KL 100-1600 rpm at -0_8V vs RHE RDE1_02_CA_C05(1).mpt
EC-Lab ASCII FILE
Nb header lines : 69

Chronoamperometry / Chronocoulometry

Run on channel : 5 (SN 6729)
User :
CE vs. WE compliance from -10 V to 10 V
Electrode connection : standard
Potential control : Ewe
Ewe ctrl range : min = -2.50 V, max = 2.50 V
Safety Limits :
	Do not start on E overload
Acquisition started on : 03/23/2022 15:50:02.769
Technique started on : 03/23/2022 15:50:07.917
Loaded Setting File :  NONE
Saved on :
	File : 03-23-22-ZnPVAGA  ECH KL 100-1600 rpm at -0_8V vs RHE RDE1_02_CA_C05.mpr
	Directory : \\research-scb.egr.msu.edu\research-scb\Mindy\Koutecky Levich\Zn GA PVA 001\ECH\03-23-22\
	Host : 35.9.136.210
Device : VSP (SN 0012)
Address : 35.9.137.65
EC-Lab for windows v11.43 (software)
Internet server v11.40 (firmware)
Command interpretor v11.40 (firmware)
Electrode material : Au/Pd
Initial state :
Electrolyte : NaCl (0.2M)
Comments : Fe(CN)63-/Fe(CN)64- 5.10-3 M
Reference electrode : SCE Saturated Calomel Electrode (0.241 V)
Electrode surface area : 0.196 cm²
Characteristic mass : 0.001 g
Equivalent Weight : 0.000 g/eq.
Density : 0.000 g/cm3
Volume (V) : 0.001 cm³
Cycle Definition : Charge/Discharge alternance
Ei (V)              -0.800
vs.                 Ref
ti (h:m:s)          0:30:0.0000
Imax                pass
unit Imax           mA
Imin                pass
unit Imin           mA
dQM                 0.000
unit dQM            mA.h
record              <I>
dI                  5.000
unit dI             µA
dQ                  0.000
unit dQ             mA.h
dt (s)              0.1000
dta (s)             0.1000
E range min (V)     -2.500
E range max (V)     2.500
I Range             Auto
I Range min         Unset
I Range max         Unset
I Range init        Unset
Bandwidth           5
goto Ns'            0
nc cycles           0

Modify on : 03/23/2022 15:52
Ei (V)              -0.600

Modify on : 03/23/2022 15:52
Ei (V)              -0.700

mode	ox/red	error	control changes	Ns changes	counter inc.	Ns	time/s	control/V	Ewe/V	<I>/mA	dQ/C	(Q-Qo)/C	I Range	Q charge/discharge/mA.h	half cycle	Q discharge/mA.h	Q charge/mA.h	Capacity/mA.h	Efficiency/%	cycle number	P/W
2	0	0	0	0	0	0	5.1484	-0.800021	-0.800248	-5.03053	-0.00012446	-0.00012446	11	-3.45721e-05	0	3.45721e-05	0.000000000000000E+000	3.45721e-05	0.0000000E+000	0.000000000000000E+000	0.00402567
2	0	0	0	0	0	0	6.7484	-0.800021	-0.800171	-4.45178	-0.00763166	-0.00763166	11	-0.00211991	0	0.00211991	0.000000000000000E+000	0.00211991	0.0000000E+000	0.000000000000000E+000	0.00356219
2	0	0	0	0	0	0	8.3484	-0.800021	-0.800248	-4.11595	-0.0144016	-0.0144016	11	-0.00400043	0	0.00400043	0.000000000000000E+000	0.00400043	0.0000000E+000	0.000000000000000E+000	0.00329378
2	0	0	0	0	0	0	9.9484	-0.800021	-0.800229	-4.07657	-0.0209399	-0.0209399	11	-0.00581663	0	0.00581663	0.000000000000000E+000	0.00581663	0.0000000E+000	0.000000000000000E+000	0.00326218
2	0	0	0	0	0	0	11.5484	-0.800021	-0.800382	-4.07144	-0.027451	-0.027451	11	-0.00762528	0	0.00762528	0.000000000000000E+000	0.00762528	0.0000000E+000	0.000000000000000E+000	0.00325871
2	0	0	0	0	0	0	13.1484	-0.800021	-0.80021	-4.05638	-0.0339527	-0.0339527	11	-0.0094313	0	0.0094313	0.000000000000000E+000	0.0094313	0.0000000E+000	0.000000000000000E+000	0.00324595
2	0	0	0	0	0	0	14.7484	-0.800021	-0.800362	-4.05933	-0.0404471	-0.0404471	11	-0.0112353	0	0.0112353	0.000000000000000E+000	0.0112353	0.0000000E+000	0.000000000000000E+000	0.00324894
2	0	0	0	0	0	0	16.3484	-0.800021	-0.800534	-4.08175	-0.0469506	-0.0469506	11	-0.0130418	0	0.0130418	0.000000000000000E+000	0.0130418	0.0000000E+000	0.000000000000000E+000	0.00326758
2	0	0	0	0	0	0	17.9484	-0.800021	-0.800477	-4.07644	-0.0534719	-0.0534719	11	-0.0148533	0	0.0148533	0.000000000000000E+000	0.0148533	0.0000000E+000	0.000000000000000E+000	0.00326309
2	0	0	0	0	0	0	19.5484	-0.800021	-0.80042	-4.07087	-0.0599871	-0.0599871	11	-0.0166631	0	0.0166631	0.000000000000000E+000	0.0166631	0.0000000E+000	0.000000000000000E+000	0.0032584
2	0	0	0	0	0	0	21.1484	-0.800021	-0.800324	-4.07626	-0.0665025	-0.0665025	11	-0.0184729	0	0.0184729	0.000000000000000E+000	0.0184729	0.0000000E+000	0.000000000000000E+000	0.00326233
2	0	0	0	0	0	0	22.7484	-0.800021	-0.800076	-4.08945	-0.0730417	-0.0730417	11	-0.0202894	0	0.0202894	0.000000000000000E+000	0.0202894	0.0000000E+000	0.000000000000000E+000	0.00327187
2	0	0	0	0	0	0	24.3484	-0.800021	-0.800343	-4.07973	-0.079566	-0.079566	11	-0.0221017	0	0.0221017	0.000000000000000E+000	0.0221017	0.0000000E+000	0.000000000000000E+000	0.00326519
2	0	0	0	0	0	0	25.9484	-0.800021	-0.800382	-4.08857	-0.0861021	-0.0861021	11	-0.0239173	0	0.0239173	0.000000000000000E+000	0.0239173	0.0000000E+000	0.000000000000000E+000	0.00327242
2	0	0	0	0	0	0	27.5484	-0.800021	-0.800362	-4.08754	-0.0926414	-0.0926414	11	-0.0257337	0	0.0257337	0.000000000000000E+000	0.0257337	0.0000000E+000	0.000000000000000E+000	0.00327152
2	0	0	0	0	0	0	29.1484	-0.800021	-0.801126	-4.09367	-0.0991876	-0.0991876	11	-0.0275521	0	0.0275521	0.000000000000000E+000	0.0275521	0.0000000E+000	0.000000000000000E+000	0.00327954
2	0	0	0	0	0	0	30.7484	-0.800021	-0.80042	-4.09534	-0.10573	-0.10573	11	-0.0293696	0	0.0293696	0.000000000000000E+000	0.0293696	0.0000000E+000	0.000000000000000E+000	0.00327799
2	0	0	0	0	0	0	32.3484	-0.800021	-0.800439	-4.10495	-0.112289	-0.112289	11	-0.0311913	0	0.0311913	0.000000000000000E+000	0.0311913	0.0000000E+000	0.000000000000000E+000	0.00328576
2	0	0	0	0	0	0	33.9484	-0.800021	-0.800286	-4.11179	-0.118863	-0.118863	11	-0.0330174	0	0.0330174	0.000000000000000E+000	0.0330174	0.0000000E+000	0.000000000000000E+000	0.00329061
2	0	0	0	0	0	0	35.5484	-0.800021	-0.800267	-4.11379	-0.125447	-0.125447	11	-0.0348463	0	0.0348463	0.000000000000000E+000	0.0348463	0.0000000E+000	0.000000000000000E+000	0.00329213
2	0	0	0	0	0	0	37.1484	-0.800021	-0.800744	-4.1049	-0.132007	-0.132007	11	-0.0366685	0	0.0366685	0.000000000000000E+000	0.0366685	0.0000000E+000	0.000000000000000E+000	0.00328697
2	0	0	0	0	0	0	38.7484	-0.800021	-0.800744	-4.11177	-0.138578	-0.138578	11	-0.038494	0	0.038494	0.000000000000000E+000	0.038494	0.0000000E+000	0.000000000000000E+000	0.00329248
2	0	0	0	0	0	0	40.3484	-0.800021	-0.800362	-4.10929	-0.145157	-0.145157	11	-0.0403214	0	0.0403214	0.000000000000000E+000	0.0403214	0.0000000E+000	0.000000000000000E+000	0.00328892
2	0	0	0	0	0	0	41.9484	-0.800021	-0.800343	-4.11545	-0.151741	-0.151741	11	-0.0421503	0	0.0421503	0.000000000000000E+000	0.0421503	0.0000000E+000	0.000000000000000E+000	0.00329377
2	0	0	0	0	0	0	43.5484	-0.800021	-0.800611	-4.12129	-0.158333	-0.158333	11	-0.0439815	0	0.0439815	0.000000000000000E+000	0.0439815	0.0000000E+000	0.000000000000000E+000	0.00329955
2	0	0	0	0	0	0	45.1484	-0.800021	-0.800095	-4.12695	-0.164932	-0.164932	11	-0.0458145	0	0.0458145	0.000000000000000E+000	0.0458145	0.0000000E+000	0.000000000000000E+000	0.00330196
2	0	0	0	0	0	0	46.7484	-0.800021	-0.800267	-4.12593	-0.171534	-0.171534	11	-0.0476483	0	0.0476483	0.000000000000000E+000	0.0476483	0.0000000E+000	0.000000000000000E+000	0.00330185
2	0	0	0	0	0	0	48.3484	-0.800021	-0.800267	-4.13048	-0.178146	-0.178146	11	-0.0494851	0	0.0494851	0.000000000000000E+000	0.0494851	0.0000000E+000	0.000000000000000E+000	0.00330549
2	0	0	0	0	0	0	49.9484	-0.800021	-0.800171	-4.13678	-0.184757	-0.184757	11	-0.0513215	0	0.0513215	0.000000000000000E+000	0.0513215	0.0000000E+000	0.000000000000000E+000	0.00331014
2	0	0	0	0	0	0	51.5484	-0.800021	-0.800592	-4.14421	-0.19138	-0.19138	11	-0.053161	0	0.053161	0.000000000000000E+000	0.053161	0.0000000E+000	0.000000000000000E+000	0.00331782
2	0	0	0	0	0	0	53.1484	-0.800021	-0.800191	-4.14065	-0.19801	-0.19801	11	-0.0550028	0	0.0550028	0.000000000000000E+000	0.0550028	0.0000000E+000	0.000000000000000E+000	0.00331331
2	0	0	0	0	0	0	54.7484	-0.800021	-0.800286	-4.13991	-0.20464	-0.20464	11	-0.0568445	0	0.0568445	0.000000000000000E+000	0.0568445	0.0000000E+000	0.000000000000000E+000	0.00331311
2	0	0	0	0	0	0	56.3484	-0.800021	-0.800305	-4.14208	-0.211272	-0.211272	11	-0.0586866	0	0.0586866	0.000000000000000E+000	0.0586866	0.0000000E+000	0.000000000000000E+000	0.00331492
2	0	0	0	0	0	0	57.9484	-0.800021	-0.800286	-4.01577	-0.217817	-0.217817	11	-0.0605047	0	0.0605047	0.000000000000000E+000	0.0605047	0.0000000E+000	0.000000000000000E+000	0.00321376
2	0	0	0	0	0	0	59.5484	-0.800021	-0.800305	-3.99645	-0.224223	-0.224223	11	-0.0622842	0	0.0622842	0.000000000000000E+000	0.0622842	0.0000000E+000	0.000000000000000E+000	0.00319838
2	0	0	0	0	0	0	61.1484	-0.800021	-0.800191	-3.98396	-0.230605	-0.230605	11	-0.064057	0	0.064057	0.000000000000000E+000	0.064057	0.0000000E+000	0.000000000000000E+000	0.00318793
2	0	0	0	0	0	0	62.7484	-0.800021	-0.800572	-3.97988	-0.236976	-0.236976	11	-0.0658266	0	0.0658266	0.000000000000000E+000	0.0658266	0.0000000E+000	0.000000000000000E+000	0.00318618
2	0	0	0	0	0	0	64.3484	-0.800021	-0.800458	-3.97928	-0.243341	-0.243341	11	-0.0675947	0	0.0675947	0.000000000000000E+000	0.0675947	0.0000000E+000	0.000000000000000E+000	0.00318524
2	0	0	0	0	0	0	65.9484	-0.800021	-0.800382	-3.95746	-0.249688	-0.249688	11	-0.0693578	0	0.0693578	0.000000000000000E+000	0.0693578	0.0000000E+000	0.000000000000000E+000	0.00316748
2	0	0	0	0	0	0	67.5484	-0.800021	-0.80042	-3.92805	-0.255988	-0.255988	11	-0.0711078	0	0.0711078	0.000000000000000E+000	0.0711078	0.0000000E+000	0.000000000000000E+000	0.00314409
2	0	0	0	0	0	0	69.1484	-0.800021	-0.800305	-3.67369	-0.262092	-0.262092	11	-0.0728032	0	0.0728032	0.000000000000000E+000	0.0728032	0.0000000E+000	0.000000000000000E+000	0.00294007
2	0	0	0	0	0	0	70.7484	-0.800021	-0.800401	-3.66143	-0.267942	-0.267942	11	-0.0744284	0	0.0744284	0.000000000000000E+000	0.0744284	0.0000000E+000	0.000000000000000E+000	0.00293061
2	0	0	0	0	0	0	72.3484	-0.800021	-0.800324	-3.68266	-0.273818	-0.273818	11	-0.0760605	0	0.0760605	0.000000000000000E+000	0.0760605	0.0000000E+000	0.000000000000000E+000	0.00294733
2	0	0	0	0	0	0	73.9484	-0.800021	-0.800439	-3.68844	-0.279722	-0.279722	11	-0.0777004	0	0.0777004	0.000000000000000E+000	0.0777004	0.0000000E+000	0.000000000000000E+000	0.00295237
2	0	0	0	0	0	0	75.5484	-0.800021	-0.800515	-3.6941	-0.285629	-0.285629	11	-0.0793414	0	0.0793414	0.000000000000000E+000	0.0793414	0.0000000E+000	0.000000000000000E+000	0.00295718
2	0	0	0	0	0	0	77.1484	-0.800021	-0.800133	-3.70951	-0.29155	-0.29155	11	-0.080986	0	0.080986	0.000000000000000E+000	0.080986	0.0000000E+000	0.000000000000000E+000	0.0029681
2	0	0	0	0	0	0	78.7484	-0.800021	-0.800477	-3.71733	-0.297486	-0.297486	11	-0.0826349	0	0.0826349	0.000000000000000E+000	0.0826349	0.0000000E+000	0.000000000000000E+000	0.00297564
2	0	0	0	0	0	0	80.3484	-0.800021	-0.800152	-3.71445	-0.303428	-0.303428	11	-0.0842856	0	0.0842856	0.000000000000000E+000	0.0842856	0.0000000E+000	0.000000000000000E+000	0.00297212
2	0	0	0	0	0	0	81.9484	-0.800021	-0.800324	-3.72837	-0.309382	-0.309382	11	-0.0859395	0	0.0859395	0.000000000000000E+000	0.0859395	0.0000000E+000	0.000000000000000E+000	0.00298391
2	0	0	0	0	0	0	83.5484	-0.800021	-0.80042	-3.74825	-0.315368	-0.315368	11	-0.0876022	0	0.0876022	0.000000000000000E+000	0.0876022	0.0000000E+000	0.000000000000000E+000	0.00300017
2	0	0	0	0	0	0	85.1484	-0.800021	-0.800191	-3.73864	-0.321343	-0.321343	11	-0.0892619	0	0.0892619	0.000000000000000E+000	0.0892619	0.0000000E+000	0.000000000000000E+000	0.00299162
2	0	0	0	0	0	0	86.7484	-0.800021	-0.800362	-3.77199	-0.327355	-0.327355	11	-0.0909319	0	0.0909319	0.000000000000000E+000	0.0909319	0.0000000E+000	0.000000000000000E+000	0.00301896
2	0	0	0	0	0	0	88.3484	-0.800021	-0.800267	-3.78744	-0.333406	-0.333406	11	-0.0926127	0	0.0926127	0.000000000000000E+000	0.0926127	0.0000000E+000	0.000000000000000E+000	0.00303096
2	0	0	0	0	0	0	89.9484	-0.800021	-0.800152	-3.80678	-0.339473	-0.339473	11	-0.0942981	0	0.0942981	0.000000000000000E+000	0.0942981	0.0000000E+000	0.000000000000000E+000	0.00304601
2	0	0	0	0	0	0	91.5484	-0.800021	-0.80063	-4.04526	-0.345738	-0.345738	11	-0.0960383	0	0.0960383	0.000000000000000E+000	0.0960383	0.0000000E+000	0.000000000000000E+000	0.00323875
2	0	0	0	0	0	0	93.1484	-0.800021	-0.800305	-4.04368	-0.352213	-0.352213	11	-0.0978368	0	0.0978368	0.000000000000000E+000	0.0978368	0.0000000E+000	0.000000000000000E+000	0.00323618
2	0	0	0	0	0	0	94.7484	-0.800021	-0.800324	-4.03977	-0.35868	-0.35868	11	-0.0996335	0	0.0996335	0.000000000000000E+000	0.0996335	0.0000000E+000	0.000000000000000E+000	0.00323312
2	0	0	0	0	0	0	96.3484	-0.800021	-0.800382	-4.04132	-0.365143	-0.365143	11	-0.101429	0	0.101429	0.000000000000000E+000	0.101429	0.0000000E+000	0.000000000000000E+000	0.0032346
2	0	0	0	0	0	0	97.9484	-0.800021	-0.800343	-4.03717	-0.371599	-0.371599	11	-0.103222	0	0.103222	0.000000000000000E+000	0.103222	0.0000000E+000	0.000000000000000E+000	0.00323112
2	0	0	1	0	0	0	123.424	-0.800021	-0.800472	-4.20964	-0.376026	-0.376026	11	-0.104452	0	0.104452	0.000000000000000E+000	0.104452	0.0000000E+000	0.000000000000000E+000	0.0033697
2	0	0	1	0	0	0	125.024	-0.800021	-0.800491	-4.03001	-0.382521	-0.382521	11	-0.106256	0	0.106256	0.000000000000000E+000	0.106256	0.0000000E+000	0.000000000000000E+000	0.00322599
2	0	0	1	0	0	0	126.624	-0.800021	-0.800644	-4.02799	-0.388967	-0.388967	11	-0.108046	0	0.108046	0.000000000000000E+000	0.108046	0.0000000E+000	0.000000000000000E+000	0.00322499
2	0	0	1	0	0	0	128.224	-0.800021	-0.800472	-4.01833	-0.395407	-0.395407	11	-0.109835	0	0.109835	0.000000000000000E+000	0.109835	0.0000000E+000	0.000000000000000E+000	0.00321656
2	0	0	1	0	0	0	129.824	-0.800021	-0.800625	-4.02523	-0.401845	-0.401845	11	-0.111624	0	0.111624	0.000000000000000E+000	0.111624	0.0000000E+000	0.000000000000000E+000	0.0032227
2	0	0	1	0	0	0	131.424	-0.800021	-0.800758	-4.02652	-0.40829	-0.40829	11	-0.113414	0	0.113414	0.000000000000000E+000	0.113414	0.0000000E+000	0.000000000000000E+000	0.00322427
2	0	0	1	0	0	0	133.024	-0.800021	-0.800472	-4.01995	-0.414726	-0.414726	11	-0.115202	0	0.115202	0.000000000000000E+000	0.115202	0.0000000E+000	0.000000000000000E+000	0.00321786
2	0	0	1	0	0	0	134.624	-0.800021	-0.800548	-4.01136	-0.421155	-0.421155	11	-0.116987	0	0.116987	0.000000000000000E+000	0.116987	0.0000000E+000	0.000000000000000E+000	0.00321129
2	0	0	1	0	0	0	136.224	-0.800021	-0.800758	-4.01074	-0.42758	-0.42758	11	-0.118772	0	0.118772	0.000000000000000E+000	0.118772	0.0000000E+000	0.000000000000000E+000	0.00321164
2	0	0	1	0	0	0	137.824	-0.800021	-0.800434	-4.02432	-0.434009	-0.434009	11	-0.120558	0	0.120558	0.000000000000000E+000	0.120558	0.0000000E+000	0.000000000000000E+000	0.0032212
2	0	0	0	0	0	0	139.424	-0.600032	-0.60051	-0.776951	-0.439197	-0.439197	11	-0.121999	0	0.121999	0.000000000000000E+000	0.121999	0.0000000E+000	0.000000000000000E+000	0.000466567
2	0	0	0	0	0	0	141.024	-0.600032	-0.600415	-0.798575	-0.44047	-0.44047	11	-0.122353	0	0.122353	0.000000000000000E+000	0.122353	0.0000000E+000	0.000000000000000E+000	0.000479476
2	0	0	0	0	0	0	142.624	-0.600032	-0.600606	-0.798093	-0.441748	-0.441748	11	-0.122708	0	0.122708	0.000000000000000E+000	0.122708	0.0000000E+000	0.000000000000000E+000	0.000479339
2	0	0	0	0	0	0	144.224	-0.600032	-0.600625	-0.796902	-0.443024	-0.443024	11	-0.123062	0	0.123062	0.000000000000000E+000	0.123062	0.0000000E+000	0.000000000000000E+000	0.000478639
2	0	0	0	0	0	0	145.824	-0.600032	-0.600567	-0.795889	-0.444297	-0.444297	11	-0.123416	0	0.123416	0.000000000000000E+000	0.123416	0.0000000E+000	0.000000000000000E+000	0.000477985
2	0	0	0	0	0	0	147.424	-0.600032	-0.600434	-0.793263	-0.445569	-0.445569	11	-0.123769	0	0.123769	0.000000000000000E+000	0.123769	0.0000000E+000	0.000000000000000E+000	0.000476302
2	0	0	0	0	0	0	149.024	-0.600032	-0.60051	-0.792476	-0.446837	-0.446837	11	-0.124121	0	0.124121	0.000000000000000E+000	0.124121	0.0000000E+000	0.000000000000000E+000	0.00047589
2	0	0	0	0	0	0	150.624	-0.600032	-0.600606	-0.791605	-0.448105	-0.448105	11	-0.124474	0	0.124474	0.000000000000000E+000	0.124474	0.0000000E+000	0.000000000000000E+000	0.000475442
2	0	0	0	0	0	0	152.224	-0.600032	-0.600701	-0.790865	-0.449371	-0.449371	11	-0.124825	0	0.124825	0.000000000000000E+000	0.124825	0.0000000E+000	0.000000000000000E+000	0.000475074
2	0	0	0	0	0	0	153.824	-0.600032	-0.600548	-0.789466	-0.450635	-0.450635	11	-0.125176	0	0.125176	0.000000000000000E+000	0.125176	0.0000000E+000	0.000000000000000E+000	0.000474113
2	0	0	0	0	0	0	155.424	-0.600032	-0.600548	-0.787511	-0.451896	-0.451896	11	-0.125527	0	0.125527	0.000000000000000E+000	0.125527	0.0000000E+000	0.000000000000000E+000	0.000472939
2	0	0	0	0	0	0	157.024	-0.600032	-0.600548	-0.787234	-0.453156	-0.453156	11	-0.125877	0	0.125877	0.000000000000000E+000	0.125877	0.0000000E+000	0.000000000000000E+000	0.000472772
2	0	0	1	0	0	0	158.624	-0.699977	-0.700434	-2.10701	-0.455266	-0.455266	11	-0.126463	0	0.126463	0.000000000000000E+000	0.126463	0.0000000E+000	0.000000000000000E+000	0.00147582
2	0	0	1	0	0	0	160.224	-0.699977	-0.700682	-2.09831	-0.458626	-0.458626	11	-0.127396	0	0.127396	0.000000000000000E+000	0.127396	0.0000000E+000	0.000000000000000E+000	0.00147025
2	0	0	1	0	0	0	161.824	-0.699977	-0.70051	-2.09625	-0.461981	-0.461981	11	-0.128328	0	0.128328	0.000000000000000E+000	0.128328	0.0000000E+000	0.000000000000000E+000	0.00146844
2	0	0	1	0	0	0	163.424	-0.699977	-0.700396	-2.09348	-0.465333	-0.465333	11	-0.129259	0	0.129259	0.000000000000000E+000	0.129259	0.0000000E+000	0.000000000000000E+000	0.00146626
2	0	0	1	0	0	0	165.024	-0.699977	-0.70051	-2.09376	-0.468683	-0.468683	11	-0.13019	0	0.13019	0.000000000000000E+000	0.13019	0.0000000E+000	0.000000000000000E+000	0.0014667
2	0	0	1	0	0	0	166.624	-0.699977	-0.700625	-2.09015	-0.472031	-0.472031	11	-0.13112	0	0.13112	0.000000000000000E+000	0.13112	0.0000000E+000	0.000000000000000E+000	0.00146441
2	0	0	1	0	0	0	168.224	-0.699977	-0.70051	-2.08633	-0.475374	-0.475374	11	-0.132048	0	0.132048	0.000000000000000E+000	0.132048	0.0000000E+000	0.000000000000000E+000	0.00146149
2	0	0	1	0	0	0	169.824	-0.699977	-0.700529	-2.08767	-0.478713	-0.478713	11	-0.132976	0	0.132976	0.000000000000000E+000	0.132976	0.0000000E+000	0.000000000000000E+000	0.00146247
2	0	0	1	0	0	0	171.424	-0.699977	-0.70051	-2.08943	-0.482052	-0.482052	11	-0.133903	0	0.133903	0.000000000000000E+000	0.133903	0.0000000E+000	0.000000000000000E+000	0.00146367
2	0	0	1	0	0	0	173.024	-0.699977	-0.700587	-2.08429	-0.485389	-0.485389	11	-0.13483	0	0.13483	0.000000000000000E+000	0.13483	0.0000000E+000	0.000000000000000E+000	0.00146023
2	0	0	1	0	0	0	174.624	-0.699977	-0.700567	-2.03154	-0.488714	-0.488714	11	-0.135754	0	0.135754	0.000000000000000E+000	0.135754	0.0000000E+000	0.000000000000000E+000	0.00142323
2	0	0	1	0	0	0	176.224	-0.699977	-0.700625	-2.01937	-0.491932	-0.491932	11	-0.136648	0	0.136648	0.000000000000000E+000	0.136648	0.0000000E+000	0.000000000000000E+000	0.00141482
2	0	0	1	0	0	0	177.824	-0.699977	-0.700548	-2.01876	-0.495163	-0.495163	11	-0.137545	0	0.137545	0.000000000000000E+000	0.137545	0.0000000E+000	0.000000000000000E+000	0.00141424
2	0	0	1	0	0	0	179.424	-0.699977	-0.700472	-2.01707	-0.498395	-0.498395	11	-0.138443	0	0.138443	0.000000000000000E+000	0.138443	0.0000000E+000	0.000000000000000E+000	0.0014129
2	0	0	1	0	0	0	181.024	-0.699977	-0.700587	-2.01794	-0.501626	-0.501626	11	-0.139341	0	0.139341	0.000000000000000E+000	0.139341	0.0000000E+000	0.000000000000000E+000	0.00141374
2	0	0	1	0	0	0	182.624	-0.699977	-0.700587	-2.01492	-0.504853	-0.504853	11	-0.140237	0	0.140237	0.000000000000000E+000	0.140237	0.0000000E+000	0.000000000000000E+000	0.00141163
2	0	0	1	0	0	0	184.224	-0.699977	-0.700529	-1.96425	-0.508034	-0.508034	11	-0.141121	0	0.141121	0.000000000000000E+000	0.141121	0.0000000E+000	0.000000000000000E+000	0.00137602
2	0	0	1	0	0	0	185.824	-0.699977	-0.700491	-1.96182	-0.511174	-0.511174	11	-0.141993	0	0.141993	0.000000000000000E+000	0.141993	0.0000000E+000	0.000000000000000E+000	0.00137424
2	0	0	1	0	0	0	187.424	-0.699977	-0.70051	-1.96016	-0.51431	-0.51431	11	-0.142864	0	0.142864	0.000000000000000E+000	0.142864	0.0000000E+000	0.000000000000000E+000	0.00137311
2	0	0	1	0	0	0	189.024	-0.699977	-0.700663	-1.95597	-0.517443	-0.517443	11	-0.143734	0	0.143734	0.000000000000000E+000	0.143734	0.0000000E+000	0.000000000000000E+000	0.00137047
2	0	0	1	0	0	0	190.624	-0.699977	-0.700587	-1.95411	-0.520572	-0.520572	11	-0.144603	0	0.144603	0.000000000000000E+000	0.144603	0.0000000E+000	0.000000000000000E+000	0.00136902
2	0	0	1	0	0	0	192.224	-0.699977	-0.700396	-1.95074	-0.523696	-0.523696	11	-0.145471	0	0.145471	0.000000000000000E+000	0.145471	0.0000000E+000	0.000000000000000E+000	0.00136629
2	0	0	1	0	0	0	193.824	-0.699977	-0.700606	-1.94809	-0.526815	-0.526815	11	-0.146337	0	0.146337	0.000000000000000E+000	0.146337	0.0000000E+000	0.000000000000000E+000	0.00136484
2	0	0	1	0	0	0	195.424	-0.699977	-0.700434	-1.90591	-0.52992	-0.52992	11	-0.1472	0	0.1472	0.000000000000000E+000	0.1472	0.0000000E+000	0.000000000000000E+000	0.00133496
2	0	0	1	0	0	0	197.024	-0.699977	-0.700606	-1.8471	-0.532905	-0.532905	11	-0.148029	0	0.148029	0.000000000000000E+000	0.148029	0.0000000E+000	0.000000000000000E+000	0.00129409
2	0	0	1	0	0	0	198.624	-0.699977	-0.700587	-1.83724	-0.535856	-0.535856	11	-0.148849	0	0.148849	0.000000000000000E+000	0.148849	0.0000000E+000	0.000000000000000E+000	0.00128714
2	0	0	1	0	0	0	200.224	-0.699977	-0.700606	-1.83907	-0.5388	-0.5388	11	-0.149667	0	0.149667	0.000000000000000E+000	0.149667	0.0000000E+000	0.000000000000000E+000	0.00128847
2	0	0	1	0	0	0	201.824	-0.699977	-0.700434	-1.83895	-0.541738	-0.541738	11	-0.150483	0	0.150483	0.000000000000000E+000	0.150483	0.0000000E+000	0.000000000000000E+000	0.00128806
2	0	0	1	0	0	0	203.424	-0.699977	-0.700453	-1.83519	-0.544671	-0.544671	11	-0.151298	0	0.151298	0.000000000000000E+000	0.151298	0.0000000E+000	0.000000000000000E+000	0.00128547
2	0	0	1	0	0	0	205.024	-0.699977	-0.700472	-1.82355	-0.547597	-0.547597	11	-0.15211	0	0.15211	0.000000000000000E+000	0.15211	0.0000000E+000	0.000000000000000E+000	0.00127735
2	0	0	1	0	0	0	206.624	-0.699977	-0.700434	-1.81504	-0.550515	-0.550515	11	-0.152921	0	0.152921	0.000000000000000E+000	0.152921	0.0000000E+000	0.000000000000000E+000	0.00127131
2	0	0	1	0	0	0	208.224	-0.699977	-0.700357	-1.81292	-0.553425	-0.553425	11	-0.153729	0	0.153729	0.000000000000000E+000	0.153729	0.0000000E+000	0.000000000000000E+000	0.00126969
2	0	0	1	0	0	0	209.824	-0.699977	-0.700453	-1.81398	-0.556327	-0.556327	11	-0.154535	0	0.154535	0.000000000000000E+000	0.154535	0.0000000E+000	0.000000000000000E+000	0.00127061
2	0	0	1	0	0	0	211.424	-0.699977	-0.700587	-1.81078	-0.55922	-0.55922	11	-0.155339	0	0.155339	0.000000000000000E+000	0.155339	0.0000000E+000	0.000000000000000E+000	0.00126861
2	0	0	1	0	0	0	213.024	-0.699977	-0.700663	-1.80204	-0.562106	-0.562106	11	-0.15614	0	0.15614	0.000000000000000E+000	0.15614	0.0000000E+000	0.000000000000000E+000	0.00126262
2	0	0	1	0	0	0	214.624	-0.699977	-0.700491	-1.79312	-0.564983	-0.564983	11	-0.15694	0	0.15694	0.000000000000000E+000	0.15694	0.0000000E+000	0.000000000000000E+000	0.00125607
2	0	0	1	0	0	0	216.224	-0.699977	-0.700567	-1.78446	-0.567853	-0.567853	11	-0.157737	0	0.157737	0.000000000000000E+000	0.157737	0.0000000E+000	0.000000000000000E+000	0.00125013
2	0	0	1	0	0	0	217.824	-0.699977	-0.700606	-1.7849	-0.570716	-0.570716	11	-0.158532	0	0.158532	0.000000000000000E+000	0.158532	0.0000000E+000	0.000000000000000E+000	0.00125051
2	0	0	1	0	0	0	219.424	-0.699977	-0.700415	-1.78922	-0.573572	-0.573572	11	-0.159326	0	0.159326	0.000000000000000E+000	0.159326	0.0000000E+000	0.000000000000000E+000	0.0012532
2	0	0	1	0	0	0	221.024	-0.699977	-0.700453	-1.78344	-0.576422	-0.576422	11	-0.160117	0	0.160117	0.000000000000000E+000	0.160117	0.0000000E+000	0.000000000000000E+000	0.00124922
2	0	0	1	0	0	0	222.624	-0.699977	-0.70072	-1.77408	-0.579264	-0.579264	11	-0.160907	0	0.160907	0.000000000000000E+000	0.160907	0.0000000E+000	0.000000000000000E+000	0.00124313
2	0	0	1	0	0	0	224.224	-0.699977	-0.700491	-1.76622	-0.582099	-0.582099	11	-0.161694	0	0.161694	0.000000000000000E+000	0.161694	0.0000000E+000	0.000000000000000E+000	0.00123722
2	0	0	1	0	0	0	225.824	-0.699977	-0.700644	-1.76216	-0.58493	-0.58493	11	-0.16248	0	0.16248	0.000000000000000E+000	0.16248	0.0000000E+000	0.000000000000000E+000	0.00123465
2	0	0	1	0	0	0	227.424	-0.699977	-0.700472	-1.76306	-0.587753	-0.587753	11	-0.163265	0	0.163265	0.000000000000000E+000	0.163265	0.0000000E+000	0.000000000000000E+000	0.00123497
2	0	0	1	0	0	0	229.024	-0.699977	-0.700567	-1.76331	-0.59057	-0.59057	11	-0.164047	0	0.164047	0.000000000000000E+000	0.164047	0.0000000E+000	0.000000000000000E+000	0.00123532
2	0	0	1	0	0	0	230.624	-0.699977	-0.700529	-1.75769	-0.593381	-0.593381	11	-0.164828	0	0.164828	0.000000000000000E+000	0.164828	0.0000000E+000	0.000000000000000E+000	0.00123132
2	0	0	1	0	0	0	232.224	-0.699977	-0.700587	-1.74847	-0.596184	-0.596184	11	-0.165607	0	0.165607	0.000000000000000E+000	0.165607	0.0000000E+000	0.000000000000000E+000	0.00122496
2	0	0	1	0	0	0	233.824	-0.699977	-0.70051	-1.74016	-0.59898	-0.59898	11	-0.166383	0	0.166383	0.000000000000000E+000	0.166383	0.0000000E+000	0.000000000000000E+000	0.001219
2	0	0	1	0	0	0	235.424	-0.699977	-0.700548	-1.73989	-0.601771	-0.601771	11	-0.167159	0	0.167159	0.000000000000000E+000	0.167159	0.0000000E+000	0.000000000000000E+000	0.00121888
2	0	0	1	0	0	0	237.024	-0.699977	-0.700472	-1.74137	-0.604556	-0.604556	11	-0.167932	0	0.167932	0.000000000000000E+000	0.167932	0.0000000E+000	0.000000000000000E+000	0.00121978
2	0	0	1	0	0	0	238.624	-0.699977	-0.700529	-1.71273	-0.607329	-0.607329	11	-0.168702	0	0.168702	0.000000000000000E+000	0.168702	0.0000000E+000	0.000000000000000E+000	0.00119982
2	0	0	1	0	0	0	240.224	-0.699977	-0.700606	-1.67091	-0.610019	-0.610019	11	-0.16945	0	0.16945	0.000000000000000E+000	0.16945	0.0000000E+000	0.000000000000000E+000	0.00117065
2	0	0	1	0	0	0	241.824	-0.699977	-0.700567	-1.667	-0.612678	-0.612678	11	-0.170188	0	0.170188	0.000000000000000E+000	0.170188	0.0000000E+000	0.000000000000000E+000	0.00116785
2	0	0	1	0	0	0	243.424	-0.699977	-0.700491	-1.65411	-0.615327	-0.615327	11	-0.170924	0	0.170924	0.000000000000000E+000	0.170924	0.0000000E+000	0.000000000000000E+000	0.00115869
2	0	0	1	0	0	0	245.024	-0.699977	-0.700529	-1.64941	-0.617973	-0.617973	11	-0.171659	0	0.171659	0.000000000000000E+000	0.171659	0.0000000E+000	0.000000000000000E+000	0.00115546
2	0	0	1	0	0	0	246.624	-0.699977	-0.700663	-1.64268	-0.620613	-0.620613	11	-0.172392	0	0.172392	0.000000000000000E+000	0.172392	0.0000000E+000	0.000000000000000E+000	0.00115096
2	0	0	1	0	0	0	248.224	-0.699977	-0.700548	-1.64126	-0.623249	-0.623249	11	-0.173125	0	0.173125	0.000000000000000E+000	0.173125	0.0000000E+000	0.000000000000000E+000	0.00114978
2	0	0	1	0	0	0	249.824	-0.699977	-0.700548	-1.64281	-0.62588	-0.62588	11	-0.173856	0	0.173856	0.000000000000000E+000	0.173856	0.0000000E+000	0.000000000000000E+000	0.00115086
2	0	0	1	0	0	0	251.424	-0.699977	-0.700548	-1.64546	-0.628507	-0.628507	11	-0.174585	0	0.174585	0.000000000000000E+000	0.174585	0.0000000E+000	0.000000000000000E+000	0.00115272
2	0	0	1	0	0	0	253.024	-0.699977	-0.700472	-1.6464	-0.631131	-0.631131	11	-0.175314	0	0.175314	0.000000000000000E+000	0.175314	0.0000000E+000	0.000000000000000E+000	0.00115326
2	0	0	1	0	0	0	254.624	-0.699977	-0.700548	-1.63915	-0.633751	-0.633751	11	-0.176042	0	0.176042	0.000000000000000E+000	0.176042	0.0000000E+000	0.000000000000000E+000	0.00114831
2	0	0	1	0	0	0	256.224	-0.699977	-0.700529	-1.63275	-0.636365	-0.636365	11	-0.176768	0	0.176768	0.000000000000000E+000	0.176768	0.0000000E+000	0.000000000000000E+000	0.00114379
2	0	0	1	0	0	0	257.824	-0.699977	-0.700453	-1.62672	-0.638977	-0.638977	11	-0.177494	0	0.177494	0.000000000000000E+000	0.177494	0.0000000E+000	0.000000000000000E+000	0.00113944
2	0	0	1	0	0	0	259.424	-0.699977	-0.700587	-1.623	-0.641585	-0.641585	11	-0.178218	0	0.178218	0.000000000000000E+000	0.178218	0.0000000E+000	0.000000000000000E+000	0.00113706
2	0	0	1	0	0	0	261.024	-0.699977	-0.700377	-1.62198	-0.644188	-0.644188	11	-0.178941	0	0.178941	0.000000000000000E+000	0.178941	0.0000000E+000	0.000000000000000E+000	0.00113599
2	0	0	1	0	0	0	262.624	-0.699977	-0.700529	-1.62675	-0.646786	-0.646786	11	-0.179663	0	0.179663	0.000000000000000E+000	0.179663	0.0000000E+000	0.000000000000000E+000	0.00113959
2	0	0	1	0	0	0	264.224	-0.699977	-0.700644	-1.62774	-0.649381	-0.649381	11	-0.180384	0	0.180384	0.000000000000000E+000	0.180384	0.0000000E+000	0.000000000000000E+000	0.00114047
2	0	0	1	0	0	0	265.824	-0.699977	-0.700625	-1.56615	-0.651932	-0.651932	11	-0.181092	0	0.181092	0.000000000000000E+000	0.181092	0.0000000E+000	0.000000000000000E+000	0.00109728
2	0	0	1	0	0	0	267.424	-0.699977	-0.700567	-1.53271	-0.654402	-0.654402	11	-0.181778	0	0.181778	0.000000000000000E+000	0.181778	0.0000000E+000	0.000000000000000E+000	0.00107377
2	0	0	1	0	0	0	269.024	-0.699977	-0.70051	-1.52566	-0.656854	-0.656854	11	-0.18246	0	0.18246	0.000000000000000E+000	0.18246	0.0000000E+000	0.000000000000000E+000	0.00106874
2	0	0	1	0	0	0	270.624	-0.699977	-0.700587	-1.53117	-0.659299	-0.659299	11	-0.183139	0	0.183139	0.000000000000000E+000	0.183139	0.0000000E+000	0.000000000000000E+000	0.00107272
2	0	0	1	0	0	0	272.224	-0.699977	-0.70051	-1.52737	-0.66174	-0.66174	11	-0.183817	0	0.183817	0.000000000000000E+000	0.183817	0.0000000E+000	0.000000000000000E+000	0.00106994
2	0	0	1	0	0	0	273.824	-0.699977	-0.700472	-1.51816	-0.664178	-0.664178	11	-0.184494	0	0.184494	0.000000000000000E+000	0.184494	0.0000000E+000	0.000000000000000E+000	0.00106343
2	0	0	1	0	0	0	275.424	-0.699977	-0.700491	-1.5226	-0.666613	-0.666613	11	-0.18517	0	0.18517	0.000000000000000E+000	0.18517	0.0000000E+000	0.000000000000000E+000	0.00106657
2	0	0	1	0	0	0	277.024	-0.699977	-0.700567	-1.52757	-0.669048	-0.669048	11	-0.185847	0	0.185847	0.000000000000000E+000	0.185847	0.0000000E+000	0.000000000000000E+000	0.00107016
2	0	0	1	0	0	0	278.624	-0.699977	-0.700682	-1.51127	-0.671478	-0.671478	11	-0.186522	0	0.186522	0.000000000000000E+000	0.186522	0.0000000E+000	0.000000000000000E+000	0.00105892
2	0	0	1	0	0	0	280.224	-0.699977	-0.700434	-1.51659	-0.673908	-0.673908	11	-0.187197	0	0.187197	0.000000000000000E+000	0.187197	0.0000000E+000	0.000000000000000E+000	0.00106227
2	0	0	1	0	0	0	281.824	-0.699977	-0.700567	-1.52047	-0.676333	-0.676333	11	-0.18787	0	0.18787	0.000000000000000E+000	0.18787	0.0000000E+000	0.000000000000000E+000	0.00106519
2	0	0	1	0	0	0	283.424	-0.699977	-0.700472	-1.51341	-0.678757	-0.678757	11	-0.188544	0	0.188544	0.000000000000000E+000	0.188544	0.0000000E+000	0.000000000000000E+000	0.0010601
2	0	0	1	0	0	0	285.024	-0.699977	-0.700567	-1.5092	-0.681179	-0.681179	11	-0.189216	0	0.189216	0.000000000000000E+000	0.189216	0.0000000E+000	0.000000000000000E+000	0.0010573
2	0	0	1	0	0	0	286.624	-0.699977	-0.700548	-1.51645	-0.683599	-0.683599	11	-0.189889	0	0.189889	0.000000000000000E+000	0.189889	0.0000000E+000	0.000000000000000E+000	0.00106235
2	0	0	1	0	0	0	288.224	-0.699977	-0.700548	-1.51127	-0.686019	-0.686019	11	-0.190561	0	0.190561	0.000000000000000E+000	0.190561	0.0000000E+000	0.000000000000000E+000	0.00105871
2	0	0	1	0	0	0	289.824	-0.699977	-0.700415	-1.50976	-0.688439	-0.688439	11	-0.191233	0	0.191233	0.000000000000000E+000	0.191233	0.0000000E+000	0.000000000000000E+000	0.00105746
2	0	0	1	0	0	0	291.424	-0.699977	-0.70051	-1.5132	-0.690858	-0.690858	11	-0.191905	0	0.191905	0.000000000000000E+000	0.191905	0.0000000E+000	0.000000000000000E+000	0.00106001
2	0	0	1	0	0	0	293.024	-0.699977	-0.700567	-1.51456	-0.693275	-0.693275	11	-0.192576	0	0.192576	0.000000000000000E+000	0.192576	0.0000000E+000	0.000000000000000E+000	0.00106105
2	0	0	1	0	0	0	294.624	-0.699977	-0.700567	-1.49888	-0.695688	-0.695688	11	-0.193247	0	0.193247	0.000000000000000E+000	0.193247	0.0000000E+000	0.000000000000000E+000	0.00105007
2	0	0	1	0	0	0	296.224	-0.699977	-0.700567	-1.46353	-0.698058	-0.698058	11	-0.193905	0	0.193905	0.000000000000000E+000	0.193905	0.0000000E+000	0.000000000000000E+000	0.0010253
2	0	0	1	0	0	0	297.824	-0.699977	-0.700606	-1.44074	-0.700377	-0.700377	11	-0.194549	0	0.194549	0.000000000000000E+000	0.194549	0.0000000E+000	0.000000000000000E+000	0.00100939
2	0	0	1	0	0	0	299.424	-0.699977	-0.700529	-1.43637	-0.702679	-0.702679	11	-0.195189	0	0.195189	0.000000000000000E+000	0.195189	0.0000000E+000	0.000000000000000E+000	0.00100622
2	0	0	1	0	0	0	301.024	-0.699977	-0.700491	-1.43631	-0.704973	-0.704973	11	-0.195826	0	0.195826	0.000000000000000E+000	0.195826	0.0000000E+000	0.000000000000000E+000	0.00100612
2	0	0	1	0	0	0	302.624	-0.699977	-0.700453	-1.42636	-0.707263	-0.707263	11	-0.196462	0	0.196462	0.000000000000000E+000	0.196462	0.0000000E+000	0.000000000000000E+000	0.000999099
2	0	0	1	0	0	0	304.224	-0.699977	-0.700529	-1.42891	-0.709553	-0.709553	11	-0.197098	0	0.197098	0.000000000000000E+000	0.197098	0.0000000E+000	0.000000000000000E+000	0.00100099
2	0	0	1	0	0	0	305.824	-0.699977	-0.700587	-1.43227	-0.711839	-0.711839	11	-0.197733	0	0.197733	0.000000000000000E+000	0.197733	0.0000000E+000	0.000000000000000E+000	0.00100343
2	0	0	1	0	0	0	307.424	-0.699977	-0.700491	-1.42534	-0.714123	-0.714123	11	-0.198368	0	0.198368	0.000000000000000E+000	0.198368	0.0000000E+000	0.000000000000000E+000	0.000998438
2	0	0	1	0	0	0	309.024	-0.699977	-0.700606	-1.42719	-0.716404	-0.716404	11	-0.199001	0	0.199001	0.000000000000000E+000	0.199001	0.0000000E+000	0.000000000000000E+000	0.000999899
2	0	0	1	0	0	0	310.624	-0.699977	-0.700587	-1.42188	-0.718681	-0.718681	11	-0.199634	0	0.199634	0.000000000000000E+000	0.199634	0.0000000E+000	0.000000000000000E+000	0.000996151
2	0	0	1	0	0	0	312.224	-0.699977	-0.700529	-1.42034	-0.720959	-0.720959	11	-0.200267	0	0.200267	0.000000000000000E+000	0.200267	0.0000000E+000	0.000000000000000E+000	0.000994993
2	0	0	1	0	0	0	313.824	-0.699977	-0.700587	-1.42893	-0.723237	-0.723237	11	-0.200899	0	0.200899	0.000000000000000E+000	0.200899	0.0000000E+000	0.000000000000000E+000	0.00100109
2	0	0	1	0	0	0	315.424	-0.699977	-0.700548	-1.45289	-0.72553	-0.72553	11	-0.201536	0	0.201536	0.000000000000000E+000	0.201536	0.0000000E+000	0.000000000000000E+000	0.00101782
2	0	0	1	0	0	0	317.024	-0.699977	-0.700548	-1.48946	-0.727888	-0.727888	11	-0.202191	0	0.202191	0.000000000000000E+000	0.202191	0.0000000E+000	0.000000000000000E+000	0.00104344
2	0	0	1	0	0	0	318.624	-0.699977	-0.700625	-1.48704	-0.730273	-0.730273	11	-0.202854	0	0.202854	0.000000000000000E+000	0.202854	0.0000000E+000	0.000000000000000E+000	0.00104186
2	0	0	1	0	0	0	320.224	-0.699977	-0.700663	-1.49423	-0.732663	-0.732663	11	-0.203517	0	0.203517	0.000000000000000E+000	0.203517	0.0000000E+000	0.000000000000000E+000	0.00104695
2	0	0	1	0	0	0	321.824	-0.699977	-0.70051	-1.49859	-0.735051	-0.735051	11	-0.204181	0	0.204181	0.000000000000000E+000	0.204181	0.0000000E+000	0.000000000000000E+000	0.00104977
2	0	0	1	0	0	0	323.424	-0.699977	-0.700548	-1.4755	-0.737433	-0.737433	11	-0.204842	0	0.204842	0.000000000000000E+000	0.204842	0.0000000E+000	0.000000000000000E+000	0.00103366
2	0	0	1	0	0	0	325.024	-0.699977	-0.700567	-1.4798	-0.739803	-0.739803	11	-0.205501	0	0.205501	0.000000000000000E+000	0.205501	0.0000000E+000	0.000000000000000E+000	0.0010367
2	0	0	1	0	0	0	326.624	-0.699977	-0.700472	-1.49077	-0.742176	-0.742176	11	-0.20616	0	0.20616	0.000000000000000E+000	0.20616	0.0000000E+000	0.000000000000000E+000	0.00104424
2	0	0	1	0	0	0	328.224	-0.699977	-0.70051	-1.47841	-0.74455	-0.74455	11	-0.206819	0	0.206819	0.000000000000000E+000	0.206819	0.0000000E+000	0.000000000000000E+000	0.00103564
2	0	0	1	0	0	0	329.824	-0.699977	-0.700625	-1.4827	-0.746925	-0.746925	11	-0.207479	0	0.207479	0.000000000000000E+000	0.207479	0.0000000E+000	0.000000000000000E+000	0.00103882
2	0	0	1	0	0	0	331.424	-0.699977	-0.700606	-1.48684	-0.7493	-0.7493	11	-0.208139	0	0.208139	0.000000000000000E+000	0.208139	0.0000000E+000	0.000000000000000E+000	0.00104169
2	0	0	1	0	0	0	333.024	-0.699977	-0.700548	-1.56091	-0.751752	-0.751752	11	-0.20882	0	0.20882	0.000000000000000E+000	0.20882	0.0000000E+000	0.000000000000000E+000	0.00109349
2	0	0	1	0	0	0	334.624	-0.699977	-0.700472	-1.57312	-0.754252	-0.754252	11	-0.209514	0	0.209514	0.000000000000000E+000	0.209514	0.0000000E+000	0.000000000000000E+000	0.00110193
2	0	0	1	0	0	0	336.224	-0.699977	-0.70051	-1.56501	-0.756756	-0.756756	11	-0.21021	0	0.21021	0.000000000000000E+000	0.21021	0.0000000E+000	0.000000000000000E+000	0.00109631
2	0	0	1	0	0	0	337.824	-0.699977	-0.700453	-1.56095	-0.759259	-0.759259	11	-0.210905	0	0.210905	0.000000000000000E+000	0.210905	0.0000000E+000	0.000000000000000E+000	0.00109337
2	0	0	1	0	0	0	339.424	-0.699977	-0.700606	-1.5579	-0.761763	-0.761763	11	-0.211601	0	0.211601	0.000000000000000E+000	0.211601	0.0000000E+000	0.000000000000000E+000	0.00109147
2	0	0	1	0	0	0	341.024	-0.699977	-0.700587	-1.5596	-0.764266	-0.764266	11	-0.212296	0	0.212296	0.000000000000000E+000	0.212296	0.0000000E+000	0.000000000000000E+000	0.00109263
2	0	0	1	0	0	0	342.624	-0.699977	-0.700682	-1.56675	-0.766768	-0.766768	11	-0.212991	0	0.212991	0.000000000000000E+000	0.212991	0.0000000E+000	0.000000000000000E+000	0.00109779
2	0	0	1	0	0	0	344.224	-0.699977	-0.700453	-1.56752	-0.76927	-0.76927	11	-0.213686	0	0.213686	0.000000000000000E+000	0.213686	0.0000000E+000	0.000000000000000E+000	0.00109797
2	0	0	1	0	0	0	345.824	-0.699977	-0.700663	-1.62327	-0.771832	-0.771832	11	-0.214398	0	0.214398	0.000000000000000E+000	0.214398	0.0000000E+000	0.000000000000000E+000	0.00113736
2	0	0	1	0	0	0	347.424	-0.699977	-0.70051	-1.62119	-0.774433	-0.774433	11	-0.21512	0	0.21512	0.000000000000000E+000	0.21512	0.0000000E+000	0.000000000000000E+000	0.00113566
2	0	0	1	0	0	0	349.024	-0.699977	-0.70051	-1.62243	-0.777035	-0.777035	11	-0.215843	0	0.215843	0.000000000000000E+000	0.215843	0.0000000E+000	0.000000000000000E+000	0.00113653
2	0	0	1	0	0	0	350.624	-0.699977	-0.700377	-1.62417	-0.779633	-0.779633	11	-0.216565	0	0.216565	0.000000000000000E+000	0.216565	0.0000000E+000	0.000000000000000E+000	0.00113753
2	0	0	1	0	0	0	352.224	-0.699977	-0.700587	-1.62902	-0.78223	-0.78223	11	-0.217286	0	0.217286	0.000000000000000E+000	0.217286	0.0000000E+000	0.000000000000000E+000	0.00114127
2	0	0	1	0	0	0	353.824	-0.699977	-0.700548	-1.62574	-0.784828	-0.784828	11	-0.218008	0	0.218008	0.000000000000000E+000	0.218008	0.0000000E+000	0.000000000000000E+000	0.00113891
2	0	0	1	0	0	0	355.424	-0.699977	-0.700434	-1.6199	-0.787424	-0.787424	11	-0.218729	0	0.218729	0.000000000000000E+000	0.218729	0.0000000E+000	0.000000000000000E+000	0.00113463
2	0	0	1	0	0	0	357.024	-0.699977	-0.700625	-1.61709	-0.790021	-0.790021	11	-0.21945	0	0.21945	0.000000000000000E+000	0.21945	0.0000000E+000	0.000000000000000E+000	0.00113297
2	0	0	1	0	0	0	358.624	-0.699977	-0.70051	-1.6227	-0.792617	-0.792617	11	-0.220171	0	0.220171	0.000000000000000E+000	0.220171	0.0000000E+000	0.000000000000000E+000	0.00113672
2	0	0	1	0	0	0	360.224	-0.699977	-0.700453	-1.62794	-0.795212	-0.795212	11	-0.220892	0	0.220892	0.000000000000000E+000	0.220892	0.0000000E+000	0.000000000000000E+000	0.0011403
2	0	0	1	0	0	0	361.824	-0.699977	-0.700548	-1.69819	-0.797869	-0.797869	11	-0.22163	0	0.22163	0.000000000000000E+000	0.22163	0.0000000E+000	0.000000000000000E+000	0.00118966
2	0	0	1	0	0	0	363.424	-0.699977	-0.70051	-1.70526	-0.800595	-0.800595	11	-0.222387	0	0.222387	0.000000000000000E+000	0.222387	0.0000000E+000	0.000000000000000E+000	0.00119455
2	0	0	1	0	0	0	365.024	-0.699977	-0.700491	-1.70632	-0.803324	-0.803324	11	-0.223146	0	0.223146	0.000000000000000E+000	0.223146	0.0000000E+000	0.000000000000000E+000	0.00119526
2	0	0	1	0	0	0	366.624	-0.699977	-0.700587	-1.70568	-0.806053	-0.806053	11	-0.223904	0	0.223904	0.000000000000000E+000	0.223904	0.0000000E+000	0.000000000000000E+000	0.00119498
2	0	0	1	0	0	0	368.224	-0.699977	-0.700758	-1.7055	-0.808782	-0.808782	11	-0.224662	0	0.224662	0.000000000000000E+000	0.224662	0.0000000E+000	0.000000000000000E+000	0.00119514
2	0	0	1	0	0	0	369.824	-0.699977	-0.70051	-1.70402	-0.811512	-0.811512	11	-0.22542	0	0.22542	0.000000000000000E+000	0.22542	0.0000000E+000	0.000000000000000E+000	0.00119368
2	0	0	1	0	0	0	371.424	-0.699977	-0.700453	-1.70534	-0.814239	-0.814239	11	-0.226178	0	0.226178	0.000000000000000E+000	0.226178	0.0000000E+000	0.000000000000000E+000	0.00119451
2	0	0	1	0	0	0	373.024	-0.699977	-0.700415	-1.70643	-0.816968	-0.816968	11	-0.226935	0	0.226935	0.000000000000000E+000	0.226935	0.0000000E+000	0.000000000000000E+000	0.00119521
2	0	0	1	0	0	0	374.624	-0.699977	-0.700434	-1.70598	-0.819697	-0.819697	11	-0.227694	0	0.227694	0.000000000000000E+000	0.227694	0.0000000E+000	0.000000000000000E+000	0.00119492
2	0	0	1	0	0	0	376.224	-0.699977	-0.700453	-1.70702	-0.822427	-0.822427	11	-0.228452	0	0.228452	0.000000000000000E+000	0.228452	0.0000000E+000	0.000000000000000E+000	0.00119569
2	0	0	1	0	0	0	377.824	-0.699977	-0.700606	-1.7053	-0.825156	-0.825156	11	-0.22921	0	0.22921	0.000000000000000E+000	0.22921	0.0000000E+000	0.000000000000000E+000	0.00119474
2	0	0	1	0	0	0	379.424	-0.699977	-0.700491	-1.70412	-0.827884	-0.827884	11	-0.229968	0	0.229968	0.000000000000000E+000	0.229968	0.0000000E+000	0.000000000000000E+000	0.00119372
2	0	0	1	0	0	0	381.024	-0.699977	-0.700529	-1.70406	-0.83061	-0.83061	11	-0.230725	0	0.230725	0.000000000000000E+000	0.230725	0.0000000E+000	0.000000000000000E+000	0.00119375
2	0	0	1	0	0	0	382.624	-0.699977	-0.700663	-1.74223	-0.833353	-0.833353	11	-0.231487	0	0.231487	0.000000000000000E+000	0.231487	0.0000000E+000	0.000000000000000E+000	0.00122072
2	0	0	1	0	0	0	384.224	-0.699977	-0.700606	-1.74372	-0.836144	-0.836144	11	-0.232262	0	0.232262	0.000000000000000E+000	0.232262	0.0000000E+000	0.000000000000000E+000	0.00122166
2	0	0	1	0	0	0	385.824	-0.699977	-0.700701	-1.74041	-0.838932	-0.838932	11	-0.233037	0	0.233037	0.000000000000000E+000	0.233037	0.0000000E+000	0.000000000000000E+000	0.00121951
2	0	0	1	0	0	0	387.424	-0.699977	-0.700548	-1.74067	-0.841721	-0.841721	11	-0.233811	0	0.233811	0.000000000000000E+000	0.233811	0.0000000E+000	0.000000000000000E+000	0.00121942
2	0	0	1	0	0	0	389.024	-0.699977	-0.70051	-1.74082	-0.844508	-0.844508	11	-0.234585	0	0.234585	0.000000000000000E+000	0.234585	0.0000000E+000	0.000000000000000E+000	0.00121946
2	0	0	1	0	0	0	390.624	-0.699977	-0.700415	-1.74137	-0.847294	-0.847294	11	-0.235359	0	0.235359	0.000000000000000E+000	0.235359	0.0000000E+000	0.000000000000000E+000	0.00121968
2	0	0	1	0	0	0	392.224	-0.699977	-0.700357	-1.74221	-0.850079	-0.850079	11	-0.236133	0	0.236133	0.000000000000000E+000	0.236133	0.0000000E+000	0.000000000000000E+000	0.00122017
2	0	0	1	0	0	0	393.824	-0.699977	-0.700567	-1.7413	-0.852862	-0.852862	11	-0.236906	0	0.236906	0.000000000000000E+000	0.236906	0.0000000E+000	0.000000000000000E+000	0.0012199
2	0	0	1	0	0	0	395.424	-0.699977	-0.70051	-1.73676	-0.855642	-0.855642	11	-0.237678	0	0.237678	0.000000000000000E+000	0.237678	0.0000000E+000	0.000000000000000E+000	0.00121662
2	0	0	1	0	0	0	397.024	-0.699977	-0.700644	-1.73698	-0.858423	-0.858423	11	-0.238451	0	0.238451	0.000000000000000E+000	0.238451	0.0000000E+000	0.000000000000000E+000	0.00121701
2	0	0	1	0	0	0	398.624	-0.699977	-0.70051	-1.7361	-0.861203	-0.861203	11	-0.239223	0	0.239223	0.000000000000000E+000	0.239223	0.0000000E+000	0.000000000000000E+000	0.00121616
2	0	0	1	0	0	0	400.224	-0.699977	-0.70051	-1.73461	-0.863982	-0.863982	11	-0.239995	0	0.239995	0.000000000000000E+000	0.239995	0.0000000E+000	0.000000000000000E+000	0.00121511
2	0	0	1	0	0	0	401.824	-0.699977	-0.70051	-1.73424	-0.86676	-0.86676	11	-0.240767	0	0.240767	0.000000000000000E+000	0.240767	0.0000000E+000	0.000000000000000E+000	0.00121485
2	0	0	1	0	0	0	403.424	-0.699977	-0.700491	-1.73682	-0.869538	-0.869538	11	-0.241538	0	0.241538	0.000000000000000E+000	0.241538	0.0000000E+000	0.000000000000000E+000	0.00121663
2	0	0	1	0	0	0	405.024	-0.699977	-0.700472	-1.73555	-0.872316	-0.872316	11	-0.24231	0	0.24231	0.000000000000000E+000	0.24231	0.0000000E+000	0.000000000000000E+000	0.0012157
2	0	0	1	0	0	0	406.624	-0.699977	-0.700491	-1.79024	-0.875165	-0.875165	11	-0.243101	0	0.243101	0.000000000000000E+000	0.243101	0.0000000E+000	0.000000000000000E+000	0.00125405
2	0	0	1	0	0	0	408.224	-0.699977	-0.700529	-1.78436	-0.878025	-0.878025	11	-0.243896	0	0.243896	0.000000000000000E+000	0.243896	0.0000000E+000	0.000000000000000E+000	0.00125
2	0	0	1	0	0	0	409.824	-0.699977	-0.700567	-1.78618	-0.880883	-0.880883	11	-0.24469	0	0.24469	0.000000000000000E+000	0.24469	0.0000000E+000	0.000000000000000E+000	0.00125134
2	0	0	1	0	0	0	411.424	-0.699977	-0.700453	-1.78409	-0.883738	-0.883738	11	-0.245483	0	0.245483	0.000000000000000E+000	0.245483	0.0000000E+000	0.000000000000000E+000	0.00124967
2	0	0	1	0	0	0	413.024	-0.699977	-0.700415	-1.782	-0.886591	-0.886591	11	-0.246275	0	0.246275	0.000000000000000E+000	0.246275	0.0000000E+000	0.000000000000000E+000	0.00124814
2	0	0	1	0	0	0	414.624	-0.699977	-0.700682	-1.78048	-0.889441	-0.889441	11	-0.247067	0	0.247067	0.000000000000000E+000	0.247067	0.0000000E+000	0.000000000000000E+000	0.00124755
2	0	0	1	0	0	0	416.224	-0.699977	-0.700548	-1.78225	-0.89229	-0.89229	11	-0.247858	0	0.247858	0.000000000000000E+000	0.247858	0.0000000E+000	0.000000000000000E+000	0.00124855
2	0	0	1	0	0	0	417.824	-0.699977	-0.700529	-1.77928	-0.895138	-0.895138	11	-0.248649	0	0.248649	0.000000000000000E+000	0.248649	0.0000000E+000	0.000000000000000E+000	0.00124644
2	0	0	1	0	0	0	419.424	-0.699977	-0.700434	-1.77886	-0.897985	-0.897985	11	-0.24944	0	0.24944	0.000000000000000E+000	0.24944	0.0000000E+000	0.000000000000000E+000	0.00124597
2	0	0	1	0	0	0	421.024	-0.699977	-0.700453	-1.78011	-0.900833	-0.900833	11	-0.250231	0	0.250231	0.000000000000000E+000	0.250231	0.0000000E+000	0.000000000000000E+000	0.00124688
2	0	0	1	0	0	0	422.624	-0.699977	-0.700548	-1.78221	-0.903681	-0.903681	11	-0.251023	0	0.251023	0.000000000000000E+000	0.251023	0.0000000E+000	0.000000000000000E+000	0.00124852
2	0	0	1	0	0	0	424.224	-0.699977	-0.700567	-1.77957	-0.90653	-0.90653	11	-0.251814	0	0.251814	0.000000000000000E+000	0.251814	0.0000000E+000	0.000000000000000E+000	0.00124671
2	0	0	1	0	0	0	425.824	-0.699977	-0.700663	-1.77607	-0.909374	-0.909374	11	-0.252604	0	0.252604	0.000000000000000E+000	0.252604	0.0000000E+000	0.000000000000000E+000	0.00124443
2	0	0	1	0	0	0	427.424	-0.699977	-0.700453	-1.77679	-0.912216	-0.912216	11	-0.253393	0	0.253393	0.000000000000000E+000	0.253393	0.0000000E+000	0.000000000000000E+000	0.00124456
2	0	0	1	0	0	0	429.024	-0.699977	-0.700606	-1.77457	-0.915055	-0.915055	11	-0.254182	0	0.254182	0.000000000000000E+000	0.254182	0.0000000E+000	0.000000000000000E+000	0.00124327
2	0	0	1	0	0	0	430.624	-0.699977	-0.700625	-1.77084	-0.917891	-0.917891	11	-0.25497	0	0.25497	0.000000000000000E+000	0.25497	0.0000000E+000	0.000000000000000E+000	0.00124069
2	0	0	1	0	0	0	432.224	-0.699977	-0.700434	-1.76926	-0.920724	-0.920724	11	-0.255757	0	0.255757	0.000000000000000E+000	0.255757	0.0000000E+000	0.000000000000000E+000	0.00123925
2	0	0	1	0	0	0	433.824	-0.699977	-0.700491	-1.76977	-0.923555	-0.923555	11	-0.256543	0	0.256543	0.000000000000000E+000	0.256543	0.0000000E+000	0.000000000000000E+000	0.00123971
2	0	0	1	0	0	0	435.424	-0.699977	-0.700701	-1.76767	-0.926385	-0.926385	11	-0.257329	0	0.257329	0.000000000000000E+000	0.257329	0.0000000E+000	0.000000000000000E+000	0.00123861
2	0	0	1	0	0	0	437.024	-0.699977	-0.70051	-1.76647	-0.929214	-0.929214	11	-0.258115	0	0.258115	0.000000000000000E+000	0.258115	0.0000000E+000	0.000000000000000E+000	0.00123743
2	0	0	1	0	0	0	438.624	-0.699977	-0.700529	-1.76727	-0.93204	-0.93204	11	-0.2589	0	0.2589	0.000000000000000E+000	0.2589	0.0000000E+000	0.000000000000000E+000	0.00123802
2	0	0	1	0	0	0	440.224	-0.699977	-0.700491	-1.76702	-0.934868	-0.934868	11	-0.259686	0	0.259686	0.000000000000000E+000	0.259686	0.0000000E+000	0.000000000000000E+000	0.00123778
2	0	0	1	0	0	0	441.824	-0.699977	-0.700548	-1.76498	-0.937693	-0.937693	11	-0.26047	0	0.26047	0.000000000000000E+000	0.26047	0.0000000E+000	0.000000000000000E+000	0.00123645
2	0	0	1	0	0	0	443.424	-0.699977	-0.700415	-1.76302	-0.940516	-0.940516	11	-0.261254	0	0.261254	0.000000000000000E+000	0.261254	0.0000000E+000	0.000000000000000E+000	0.00123485
2	0	0	1	0	0	0	445.024	-0.699977	-0.700453	-1.76293	-0.943339	-0.943339	11	-0.262039	0	0.262039	0.000000000000000E+000	0.262039	0.0000000E+000	0.000000000000000E+000	0.00123485
2	0	0	1	0	0	0	446.624	-0.699977	-0.700415	-1.76245	-0.94616	-0.94616	11	-0.262822	0	0.262822	0.000000000000000E+000	0.262822	0.0000000E+000	0.000000000000000E+000	0.00123445
2	0	0	1	0	0	0	448.224	-0.699977	-0.700663	-1.76065	-0.94898	-0.94898	11	-0.263606	0	0.263606	0.000000000000000E+000	0.263606	0.0000000E+000	0.000000000000000E+000	0.00123363
2	0	0	1	0	0	0	449.824	-0.699977	-0.700472	-1.76046	-0.951799	-0.951799	11	-0.264389	0	0.264389	0.000000000000000E+000	0.264389	0.0000000E+000	0.000000000000000E+000	0.00123315
2	0	0	1	0	0	0	451.424	-0.699977	-0.700625	-1.7601	-0.954617	-0.954617	11	-0.265171	0	0.265171	0.000000000000000E+000	0.265171	0.0000000E+000	0.000000000000000E+000	0.00123317
2	0	0	1	0	0	0	453.024	-0.699977	-0.700625	-1.76051	-0.957433	-0.957433	11	-0.265954	0	0.265954	0.000000000000000E+000	0.265954	0.0000000E+000	0.000000000000000E+000	0.00123346
2	0	0	1	0	0	0	454.624	-0.699977	-0.700319	-1.75944	-0.96025	-0.96025	11	-0.266736	0	0.266736	0.000000000000000E+000	0.266736	0.0000000E+000	0.000000000000000E+000	0.00123217
2	0	0	1	0	0	0	456.224	-0.699977	-0.700529	-1.75951	-0.963066	-0.963066	11	-0.267518	0	0.267518	0.000000000000000E+000	0.267518	0.0000000E+000	0.000000000000000E+000	0.00123259
2	0	0	1	0	0	0	457.824	-0.699977	-0.700529	-1.76088	-0.965882	-0.965882	11	-0.2683	0	0.2683	0.000000000000000E+000	0.2683	0.0000000E+000	0.000000000000000E+000	0.00123355
2	0	0	1	0	0	0	459.424	-0.699977	-0.700682	-1.75625	-0.968696	-0.968696	11	-0.269082	0	0.269082	0.000000000000000E+000	0.269082	0.0000000E+000	0.000000000000000E+000	0.00123057
2	0	0	1	0	0	0	461.024	-0.699977	-0.700587	-1.75364	-0.971504	-0.971504	11	-0.269862	0	0.269862	0.000000000000000E+000	0.269862	0.0000000E+000	0.000000000000000E+000	0.00122858
2	0	0	1	0	0	0	462.624	-0.699977	-0.700644	-1.75341	-0.974311	-0.974311	11	-0.270642	0	0.270642	0.000000000000000E+000	0.270642	0.0000000E+000	0.000000000000000E+000	0.00122852
2	0	0	1	0	0	0	464.224	-0.699977	-0.700396	-1.75121	-0.977115	-0.977115	11	-0.271421	0	0.271421	0.000000000000000E+000	0.271421	0.0000000E+000	0.000000000000000E+000	0.00122654
2	0	0	1	0	0	0	465.824	-0.699977	-0.700529	-1.74861	-0.979915	-0.979915	11	-0.272199	0	0.272199	0.000000000000000E+000	0.272199	0.0000000E+000	0.000000000000000E+000	0.00122495
2	0	0	1	0	0	0	467.424	-0.699977	-0.700739	-1.74582	-0.982712	-0.982712	11	-0.272975	0	0.272975	0.000000000000000E+000	0.272975	0.0000000E+000	0.000000000000000E+000	0.00122337
2	0	0	1	0	0	0	468.636	-0.699977	-0.700491	-1.75176	-0.984828	-0.984828	11	-0.273563	0	0.273563	0.000000000000000E+000	0.273563	0.0000000E+000	0.000000000000000E+000	0.0012271