File: ZnPVAGAECH_09 03-20-22-ZnGAPVA ECH-1600 rpm at -0_9V vs RHE RDE2_02_CA_C05(1).mpt
EC-Lab ASCII FILE
Nb header lines : 74

Chronoamperometry / Chronocoulometry

Run on channel : 5 (SN 6729)
User :
CE vs. WE compliance from -10 V to 10 V
Electrode connection : standard
Potential control : Ewe
Ewe ctrl range : min = -2.50 V, max = 2.50 V
Safety Limits :
	Do not start on E overload
Acquisition started on : 03/20/2022 13:24:21.393
Technique started on : 03/20/2022 13:24:26.541
Loaded Setting File :  NONE
Saved on :
	File : 03-20-22-ZnGAPVA  ECH-1600 rpm at -0_8V vs RHE RDE2_02_CA_C05.mpr
	Directory : \\research-scb.egr.msu.edu\research-scb\Mindy\Koutecky Levich\Zn GA PVA 001\ECH\03-20-22\
	Host : 35.9.136.210
Device : VSP (SN 0012)
Address : 35.9.137.65
EC-Lab for windows v11.43 (software)
Internet server v11.40 (firmware)
Command interpretor v11.40 (firmware)
Electrode material :
Initial state :
Electrolyte :
Comments :
Electrode surface area : 0.001 cm²
Characteristic mass : 0.001 g
Equivalent Weight : 0.000 g/eq.
Density : 0.000 g/cm3
Volume (V) : 0.001 cm³
Cycle Definition : Charge/Discharge alternance
Ei (V)              -1.000
vs.                 Ref
ti (h:m:s)          0:30:0.0000
Imax                pass
unit Imax           mA
Imin                pass
unit Imin           mA
dQM                 0.000
unit dQM            mA.h
record              <I>
dI                  5.000
unit dI             µA
dQ                  0.000
unit dQ             mA.h
dt (s)              0.1000
dta (s)             0.1000
E range min (V)     -2.500
E range max (V)     2.500
I Range             Auto
I Range min         Unset
I Range max         Unset
I Range init        Unset
Bandwidth           5
goto Ns'            0
nc cycles           0

Modify on : 03/20/2022 13:24
Electrode surface area : 0.196 cm²

Modify on : 03/20/2022 13:25
Ei (V)              -0.600

Modify on : 03/20/2022 13:31
Ei (V)              -0.700

Modify on : 03/20/2022 13:31
Ei (V)              -0.900

mode	ox/red	error	control changes	Ns changes	counter inc.	Ns	time/s	control/V	Ewe/V	<I>/mA	dQ/C	(Q-Qo)/C	I Range	Q charge/discharge/mA.h	half cycle	Q discharge/mA.h	Q charge/mA.h	Capacity/mA.h	Efficiency/%	cycle number	P/W
2	0	0	0	0	0	0	5.1484	-1.00004	-1.00077	-10.419	-0.000168703	-0.000168703	11	-4.6862e-05	0	4.6862e-05	0.000000000000000E+000	4.6862e-05	0.0000000E+000	0.000000000000000E+000	0.010427
2	0	0	0	0	0	0	6.5484	-1.00004	-1.00088	-8.1771	-0.0129778	-0.0129778	11	-0.00360495	0	0.00360495	0.000000000000000E+000	0.00360495	0.0000000E+000	0.000000000000000E+000	0.0081843
2	0	0	0	0	0	0	7.9484	-1.00004	-1.00016	-7.07121	-0.023323	-0.023323	11	-0.00647862	0	0.00647862	0.000000000000000E+000	0.00647862	0.0000000E+000	0.000000000000000E+000	0.00707231
2	0	0	0	0	0	0	9.3484	-1.00004	-0.99985	-6.31298	-0.0326823	-0.0326823	11	-0.00907843	0	0.00907843	0.000000000000000E+000	0.00907843	0.0000000E+000	0.000000000000000E+000	0.00631203
2	0	0	0	0	0	0	10.7484	-1.00004	-1.00059	-5.87418	-0.0411912	-0.0411912	11	-0.011442	0	0.011442	0.000000000000000E+000	0.011442	0.0000000E+000	0.000000000000000E+000	0.00587768
2	0	0	0	0	0	0	12.1484	-1.00004	-1.00042	-5.68693	-0.04926	-0.04926	11	-0.0136833	0	0.0136833	0.000000000000000E+000	0.0136833	0.0000000E+000	0.000000000000000E+000	0.00568934
2	0	0	0	0	0	0	13.5484	-1.00004	-1.00038	-5.70295	-0.0572016	-0.0572016	11	-0.0158893	0	0.0158893	0.000000000000000E+000	0.0158893	0.0000000E+000	0.000000000000000E+000	0.00570514
2	0	0	0	0	0	0	14.9484	-1.00004	-1.00031	-6.60042	-0.0660596	-0.0660596	11	-0.0183499	0	0.0183499	0.000000000000000E+000	0.0183499	0.0000000E+000	0.000000000000000E+000	0.00660245
2	0	0	0	0	0	0	16.3484	-1.00004	-1.00103	-6.68784	-0.0753603	-0.0753603	11	-0.0209334	0	0.0209334	0.000000000000000E+000	0.0209334	0.0000000E+000	0.000000000000000E+000	0.00669475
2	0	0	0	0	0	0	17.7484	-1.00004	-1.0005	-6.73766	-0.084748	-0.084748	11	-0.0235411	0	0.0235411	0.000000000000000E+000	0.0235411	0.0000000E+000	0.000000000000000E+000	0.00674102
2	0	0	0	0	0	0	19.1484	-1.00004	-1.00012	-6.76342	-0.0942052	-0.0942052	11	-0.0261681	0	0.0261681	0.000000000000000E+000	0.0261681	0.0000000E+000	0.000000000000000E+000	0.00676421
2	0	0	0	0	0	0	20.5484	-1.00004	-1.00044	-6.8084	-0.103707	-0.103707	11	-0.0288074	0	0.0288074	0.000000000000000E+000	0.0288074	0.0000000E+000	0.000000000000000E+000	0.00681141
2	0	0	0	0	0	0	21.9484	-1.00004	-1.00035	-6.85259	-0.113277	-0.113277	11	-0.031466	0	0.031466	0.000000000000000E+000	0.031466	0.0000000E+000	0.000000000000000E+000	0.00685497
2	0	0	0	0	0	0	23.3484	-1.00004	-1.00059	-6.86523	-0.122886	-0.122886	11	-0.0341349	0	0.0341349	0.000000000000000E+000	0.0341349	0.0000000E+000	0.000000000000000E+000	0.00686931
2	0	0	0	0	0	0	24.7484	-1.00004	-1.00038	-6.89262	-0.13251	-0.13251	11	-0.0368084	0	0.0368084	0.000000000000000E+000	0.0368084	0.0000000E+000	0.000000000000000E+000	0.00689527
2	0	0	0	0	0	0	26.1484	-1.00004	-1.001	-6.89867	-0.142162	-0.142162	11	-0.0394895	0	0.0394895	0.000000000000000E+000	0.0394895	0.0000000E+000	0.000000000000000E+000	0.00690553
2	0	0	0	0	0	0	27.5484	-1.00004	-0.999964	-6.95924	-0.151872	-0.151872	11	-0.0421866	0	0.0421866	0.000000000000000E+000	0.0421866	0.0000000E+000	0.000000000000000E+000	0.00695899
2	0	0	0	0	0	0	28.9484	-1.00004	-1.00037	-7.0095	-0.161654	-0.161654	11	-0.0449039	0	0.0449039	0.000000000000000E+000	0.0449039	0.0000000E+000	0.000000000000000E+000	0.00701206
2	0	0	0	0	0	0	30.3484	-1.00004	-1.00163	-7.04951	-0.171502	-0.171502	11	-0.0476395	0	0.0476395	0.000000000000000E+000	0.0476395	0.0000000E+000	0.000000000000000E+000	0.00706096
2	0	0	0	0	0	0	31.7484	-1.00004	-1.00006	-7.10791	-0.181412	-0.181412	11	-0.0503923	0	0.0503923	0.000000000000000E+000	0.0503923	0.0000000E+000	0.000000000000000E+000	0.00710834
2	0	0	0	0	0	0	33.1484	-1.00004	-1.00033	-7.08844	-0.191312	-0.191312	11	-0.0531421	0	0.0531421	0.000000000000000E+000	0.0531421	0.0000000E+000	0.000000000000000E+000	0.00709075
2	0	0	0	0	0	0	34.5484	-1.00004	-0.999716	-7.16114	-0.2013	-0.2013	11	-0.0559168	0	0.0559168	0.000000000000000E+000	0.0559168	0.0000000E+000	0.000000000000000E+000	0.00715911
2	0	0	0	0	0	0	35.9484	-1.00004	-1.00084	-7.19782	-0.211348	-0.211348	11	-0.0587077	0	0.0587077	0.000000000000000E+000	0.0587077	0.0000000E+000	0.000000000000000E+000	0.00720389
2	0	0	0	0	0	0	37.3484	-1.00004	-1.00054	-7.20559	-0.221431	-0.221431	11	-0.0615086	0	0.0615086	0.000000000000000E+000	0.0615086	0.0000000E+000	0.000000000000000E+000	0.00720946
2	0	0	0	0	0	0	38.7484	-1.00004	-1.00031	-7.23566	-0.231545	-0.231545	11	-0.0643182	0	0.0643182	0.000000000000000E+000	0.0643182	0.0000000E+000	0.000000000000000E+000	0.00723789
2	0	0	0	0	0	0	40.1484	-1.00004	-1.00044	-7.2289	-0.241674	-0.241674	11	-0.0671318	0	0.0671318	0.000000000000000E+000	0.0671318	0.0000000E+000	0.000000000000000E+000	0.0072321
2	0	0	0	0	0	0	41.5484	-1.00004	-1.00094	-7.27721	-0.251831	-0.251831	11	-0.0699532	0	0.0699532	0.000000000000000E+000	0.0699532	0.0000000E+000	0.000000000000000E+000	0.00728404
2	0	0	0	0	0	0	42.9484	-1.00004	-1.00038	-7.32418	-0.262035	-0.262035	11	-0.0727875	0	0.0727875	0.000000000000000E+000	0.0727875	0.0000000E+000	0.000000000000000E+000	0.007327
2	0	0	0	0	0	0	44.3484	-1.00004	-1.00073	-7.32564	-0.272284	-0.272284	11	-0.0756343	0	0.0756343	0.000000000000000E+000	0.0756343	0.0000000E+000	0.000000000000000E+000	0.00733097
2	0	0	0	0	0	0	45.7484	-1.00004	-1.00086	-7.34877	-0.282565	-0.282565	11	-0.0784903	0	0.0784903	0.000000000000000E+000	0.0784903	0.0000000E+000	0.000000000000000E+000	0.00735511
2	0	0	0	0	0	0	47.1484	-1.00004	-1.00012	-7.41658	-0.292891	-0.292891	11	-0.0813587	0	0.0813587	0.000000000000000E+000	0.0813587	0.0000000E+000	0.000000000000000E+000	0.00741745
2	0	0	0	0	0	0	48.5484	-1.00004	-1.00016	-7.42286	-0.303281	-0.303281	11	-0.0842447	0	0.0842447	0.000000000000000E+000	0.0842447	0.0000000E+000	0.000000000000000E+000	0.00742402
2	0	0	0	0	0	0	49.9484	-1.00004	-1.00061	-7.43989	-0.313682	-0.313682	11	-0.0871339	0	0.0871339	0.000000000000000E+000	0.0871339	0.0000000E+000	0.000000000000000E+000	0.00744446
2	0	0	0	0	0	0	51.3484	-1.00004	-1.00023	-7.46867	-0.324129	-0.324129	11	-0.0900359	0	0.0900359	0.000000000000000E+000	0.0900359	0.0000000E+000	0.000000000000000E+000	0.0074704
2	0	0	0	0	0	0	52.7484	-1.00004	-1.00027	-7.48103	-0.334589	-0.334589	11	-0.0929415	0	0.0929415	0.000000000000000E+000	0.0929415	0.0000000E+000	0.000000000000000E+000	0.00748305
2	0	0	0	0	0	0	54.1484	-1.00004	-1.00002	-7.48057	-0.345058	-0.345058	11	-0.0958494	0	0.0958494	0.000000000000000E+000	0.0958494	0.0000000E+000	0.000000000000000E+000	0.00748073
2	0	0	0	0	0	0	55.5484	-1.00004	-1.00025	-7.50232	-0.355543	-0.355543	11	-0.098762	0	0.098762	0.000000000000000E+000	0.098762	0.0000000E+000	0.000000000000000E+000	0.00750421
2	0	0	0	0	0	0	56.9484	-1.00004	-1.00077	-7.53826	-0.366077	-0.366077	11	-0.101688	0	0.101688	0.000000000000000E+000	0.101688	0.0000000E+000	0.000000000000000E+000	0.00754404
2	0	0	0	0	0	0	58.3484	-1.00004	-1.00054	-7.57074	-0.376644	-0.376644	11	-0.104623	0	0.104623	0.000000000000000E+000	0.104623	0.0000000E+000	0.000000000000000E+000	0.0075748
2	0	0	0	0	0	0	59.7484	-1.00004	-1.00048	-7.59592	-0.387259	-0.387259	11	-0.107572	0	0.107572	0.000000000000000E+000	0.107572	0.0000000E+000	0.000000000000000E+000	0.00759956
2	0	0	0	0	0	0	61.1484	-1.00004	-1.00002	-7.65832	-0.397921	-0.397921	11	-0.110534	0	0.110534	0.000000000000000E+000	0.110534	0.0000000E+000	0.000000000000000E+000	0.00765848
2	0	0	0	0	0	0	62.5484	-1.00004	-1.00037	-7.6617	-0.408634	-0.408634	11	-0.11351	0	0.11351	0.000000000000000E+000	0.11351	0.0000000E+000	0.000000000000000E+000	0.0076645
2	0	0	0	0	0	0	63.9484	-1.00004	-1.00101	-7.68043	-0.419376	-0.419376	11	-0.116493	0	0.116493	0.000000000000000E+000	0.116493	0.0000000E+000	0.000000000000000E+000	0.00768822
2	0	0	1	0	0	0	65.3484	-0.599957	-0.600308	-2.21291	-0.427367	-0.427367	11	-0.118713	0	0.118713	0.000000000000000E+000	0.118713	0.0000000E+000	0.000000000000000E+000	0.00132843
2	0	0	1	0	0	0	66.7484	-0.599957	-0.600461	-2.53899	-0.43077	-0.43077	11	-0.119658	0	0.119658	0.000000000000000E+000	0.119658	0.0000000E+000	0.000000000000000E+000	0.00152456
2	0	0	1	0	0	0	68.1484	-0.599957	-0.600518	-2.63739	-0.434407	-0.434407	11	-0.120669	0	0.120669	0.000000000000000E+000	0.120669	0.0000000E+000	0.000000000000000E+000	0.0015838
2	0	0	1	0	0	0	69.5484	-0.599957	-0.60027	-2.69082	-0.438142	-0.438142	11	-0.121706	0	0.121706	0.000000000000000E+000	0.121706	0.0000000E+000	0.000000000000000E+000	0.00161522
2	0	0	1	0	0	0	70.9484	-0.599957	-0.600289	-2.72033	-0.441934	-0.441934	11	-0.12276	0	0.12276	0.000000000000000E+000	0.12276	0.0000000E+000	0.000000000000000E+000	0.00163299
2	0	0	1	0	0	0	72.3484	-0.599957	-0.600327	-2.73986	-0.44576	-0.44576	11	-0.123822	0	0.123822	0.000000000000000E+000	0.123822	0.0000000E+000	0.000000000000000E+000	0.00164481
2	0	0	1	0	0	0	73.7484	-0.599957	-0.600422	-2.75779	-0.44961	-0.44961	11	-0.124892	0	0.124892	0.000000000000000E+000	0.124892	0.0000000E+000	0.000000000000000E+000	0.00165584
2	0	0	1	0	0	0	75.1484	-0.599957	-0.60027	-2.75788	-0.453471	-0.453471	11	-0.125964	0	0.125964	0.000000000000000E+000	0.125964	0.0000000E+000	0.000000000000000E+000	0.00165547
2	0	0	1	0	0	0	76.5484	-0.599957	-0.600461	-2.76329	-0.457337	-0.457337	11	-0.127038	0	0.127038	0.000000000000000E+000	0.127038	0.0000000E+000	0.000000000000000E+000	0.00165925
2	0	0	1	0	0	0	77.9484	-0.599957	-0.600327	-2.76592	-0.461209	-0.461209	11	-0.128114	0	0.128114	0.000000000000000E+000	0.128114	0.0000000E+000	0.000000000000000E+000	0.00166046
2	0	0	1	0	0	0	79.3484	-0.599957	-0.600556	-2.75966	-0.465077	-0.465077	11	-0.129188	0	0.129188	0.000000000000000E+000	0.129188	0.0000000E+000	0.000000000000000E+000	0.00165733
2	0	0	1	0	0	0	80.7484	-0.599957	-0.600461	-2.7578	-0.468939	-0.468939	11	-0.130261	0	0.130261	0.000000000000000E+000	0.130261	0.0000000E+000	0.000000000000000E+000	0.00165595
2	0	0	1	0	0	0	82.1484	-0.599957	-0.600231	-2.75293	-0.472796	-0.472796	11	-0.131332	0	0.131332	0.000000000000000E+000	0.131332	0.0000000E+000	0.000000000000000E+000	0.0016524
2	0	0	1	0	0	0	83.5484	-0.599957	-0.600441	-2.74914	-0.476647	-0.476647	11	-0.132402	0	0.132402	0.000000000000000E+000	0.132402	0.0000000E+000	0.000000000000000E+000	0.0016507
2	0	0	1	0	0	0	84.9484	-0.599957	-0.600384	-2.74088	-0.480489	-0.480489	11	-0.133469	0	0.133469	0.000000000000000E+000	0.133469	0.0000000E+000	0.000000000000000E+000	0.00164558
2	0	0	1	0	0	0	86.3484	-0.599957	-0.600384	-2.73553	-0.484322	-0.484322	11	-0.134534	0	0.134534	0.000000000000000E+000	0.134534	0.0000000E+000	0.000000000000000E+000	0.00164237
2	0	0	1	0	0	0	87.7484	-0.599957	-0.600308	-2.7331	-0.488149	-0.488149	11	-0.135597	0	0.135597	0.000000000000000E+000	0.135597	0.0000000E+000	0.000000000000000E+000	0.0016407
2	0	0	1	0	0	0	89.1484	-0.599957	-0.600231	-2.72458	-0.491968	-0.491968	11	-0.136658	0	0.136658	0.000000000000000E+000	0.136658	0.0000000E+000	0.000000000000000E+000	0.00163538
2	0	0	1	0	0	0	90.5484	-0.599957	-0.600346	-2.71921	-0.495781	-0.495781	11	-0.137717	0	0.137717	0.000000000000000E+000	0.137717	0.0000000E+000	0.000000000000000E+000	0.00163247
2	0	0	1	0	0	0	91.9484	-0.599957	-0.60027	-2.71539	-0.499587	-0.499587	11	-0.138774	0	0.138774	0.000000000000000E+000	0.138774	0.0000000E+000	0.000000000000000E+000	0.00162996
2	0	0	1	0	0	0	93.3484	-0.599957	-0.600308	-2.70611	-0.503383	-0.503383	11	-0.139829	0	0.139829	0.000000000000000E+000	0.139829	0.0000000E+000	0.000000000000000E+000	0.0016245
2	0	0	1	0	0	0	94.7484	-0.599957	-0.600441	-2.66122	-0.507164	-0.507164	11	-0.140879	0	0.140879	0.000000000000000E+000	0.140879	0.0000000E+000	0.000000000000000E+000	0.00159791
2	0	0	1	0	0	0	96.1484	-0.599957	-0.600251	-2.57239	-0.510802	-0.510802	11	-0.14189	0	0.14189	0.000000000000000E+000	0.14189	0.0000000E+000	0.000000000000000E+000	0.00154408
2	0	0	1	0	0	0	97.5484	-0.599957	-0.600155	-2.54861	-0.514385	-0.514385	11	-0.142885	0	0.142885	0.000000000000000E+000	0.142885	0.0000000E+000	0.000000000000000E+000	0.00152956
2	0	0	1	0	0	0	98.9484	-0.599957	-0.600079	-2.53015	-0.517941	-0.517941	11	-0.143872	0	0.143872	0.000000000000000E+000	0.143872	0.0000000E+000	0.000000000000000E+000	0.00151829
2	0	0	1	0	0	0	100.348	-0.599957	-0.600346	-2.51499	-0.521475	-0.521475	11	-0.144854	0	0.144854	0.000000000000000E+000	0.144854	0.0000000E+000	0.000000000000000E+000	0.00150987
2	0	0	1	0	0	0	101.748	-0.599957	-0.600289	-2.50774	-0.524993	-0.524993	11	-0.145831	0	0.145831	0.000000000000000E+000	0.145831	0.0000000E+000	0.000000000000000E+000	0.00150537
2	0	0	1	0	0	0	103.148	-0.599957	-0.600441	-2.49963	-0.528499	-0.528499	11	-0.146805	0	0.146805	0.000000000000000E+000	0.146805	0.0000000E+000	0.000000000000000E+000	0.00150088
2	0	0	1	0	0	0	104.548	-0.599957	-0.600308	-2.49147	-0.531992	-0.531992	11	-0.147776	0	0.147776	0.000000000000000E+000	0.147776	0.0000000E+000	0.000000000000000E+000	0.00149565
2	0	0	1	0	0	0	105.948	-0.599957	-0.600251	-2.48337	-0.535473	-0.535473	11	-0.148742	0	0.148742	0.000000000000000E+000	0.148742	0.0000000E+000	0.000000000000000E+000	0.00149064
2	0	0	1	0	0	0	107.348	-0.599957	-0.600193	-2.47583	-0.538941	-0.538941	11	-0.149706	0	0.149706	0.000000000000000E+000	0.149706	0.0000000E+000	0.000000000000000E+000	0.00148598
2	0	0	1	0	0	0	108.748	-0.599957	-0.600346	-2.46788	-0.542402	-0.542402	11	-0.150667	0	0.150667	0.000000000000000E+000	0.150667	0.0000000E+000	0.000000000000000E+000	0.00148158
2	0	0	1	0	0	0	110.148	-0.599957	-0.600499	-2.46321	-0.545855	-0.545855	11	-0.151626	0	0.151626	0.000000000000000E+000	0.151626	0.0000000E+000	0.000000000000000E+000	0.00147915
2	0	0	1	0	0	0	111.548	-0.599957	-0.600422	-2.45541	-0.549299	-0.549299	11	-0.152583	0	0.152583	0.000000000000000E+000	0.152583	0.0000000E+000	0.000000000000000E+000	0.00147428
2	0	0	1	0	0	0	112.948	-0.599957	-0.600308	-2.44906	-0.552734	-0.552734	11	-0.153537	0	0.153537	0.000000000000000E+000	0.153537	0.0000000E+000	0.000000000000000E+000	0.00147019
2	0	0	1	0	0	0	114.348	-0.599957	-0.600289	-2.44669	-0.556162	-0.556162	11	-0.15449	0	0.15449	0.000000000000000E+000	0.15449	0.0000000E+000	0.000000000000000E+000	0.00146872
2	0	0	1	0	0	0	115.748	-0.599957	-0.60048	-2.38427	-0.559551	-0.559551	11	-0.155431	0	0.155431	0.000000000000000E+000	0.155431	0.0000000E+000	0.000000000000000E+000	0.00143171
2	0	0	1	0	0	0	117.148	-0.599957	-0.600346	-2.34734	-0.562858	-0.562858	11	-0.156349	0	0.156349	0.000000000000000E+000	0.156349	0.0000000E+000	0.000000000000000E+000	0.00140921
2	0	0	1	0	0	0	118.548	-0.599957	-0.600212	-2.3285	-0.566128	-0.566128	11	-0.157258	0	0.157258	0.000000000000000E+000	0.157258	0.0000000E+000	0.000000000000000E+000	0.0013976
2	0	0	1	0	0	0	119.948	-0.599957	-0.600327	-2.31822	-0.569381	-0.569381	11	-0.158161	0	0.158161	0.000000000000000E+000	0.158161	0.0000000E+000	0.000000000000000E+000	0.00139169
2	0	0	1	0	0	0	121.348	-0.599957	-0.60027	-2.30892	-0.572619	-0.572619	11	-0.159061	0	0.159061	0.000000000000000E+000	0.159061	0.0000000E+000	0.000000000000000E+000	0.00138598
2	0	0	1	0	0	0	122.748	-0.599957	-0.600231	-2.30045	-0.575845	-0.575845	11	-0.159957	0	0.159957	0.000000000000000E+000	0.159957	0.0000000E+000	0.000000000000000E+000	0.00138081
2	0	0	1	0	0	0	124.148	-0.599957	-0.600403	-2.29232	-0.579059	-0.579059	11	-0.16085	0	0.16085	0.000000000000000E+000	0.16085	0.0000000E+000	0.000000000000000E+000	0.00137632
2	0	0	1	0	0	0	125.548	-0.599957	-0.600365	-2.28412	-0.582261	-0.582261	11	-0.161739	0	0.161739	0.000000000000000E+000	0.161739	0.0000000E+000	0.000000000000000E+000	0.00137131
2	0	0	1	0	0	0	126.948	-0.599957	-0.600346	-2.27877	-0.585453	-0.585453	11	-0.162626	0	0.162626	0.000000000000000E+000	0.162626	0.0000000E+000	0.000000000000000E+000	0.00136805
2	0	0	1	0	0	0	128.348	-0.599957	-0.600308	-2.27164	-0.588638	-0.588638	11	-0.163511	0	0.163511	0.000000000000000E+000	0.163511	0.0000000E+000	0.000000000000000E+000	0.00136368
2	0	0	1	0	0	0	129.748	-0.599957	-0.600422	-2.26817	-0.591817	-0.591817	11	-0.164394	0	0.164394	0.000000000000000E+000	0.164394	0.0000000E+000	0.000000000000000E+000	0.00136186
2	0	0	1	0	0	0	131.148	-0.599957	-0.600346	-2.26161	-0.594986	-0.594986	11	-0.165274	0	0.165274	0.000000000000000E+000	0.165274	0.0000000E+000	0.000000000000000E+000	0.00135775
2	0	0	1	0	0	0	132.548	-0.599957	-0.600365	-2.257	-0.598148	-0.598148	11	-0.166152	0	0.166152	0.000000000000000E+000	0.166152	0.0000000E+000	0.000000000000000E+000	0.00135503
2	0	0	1	0	0	0	133.948	-0.599957	-0.600403	-2.2519	-0.601304	-0.601304	11	-0.167029	0	0.167029	0.000000000000000E+000	0.167029	0.0000000E+000	0.000000000000000E+000	0.00135205
2	0	0	1	0	0	0	135.348	-0.599957	-0.600327	-2.24713	-0.604452	-0.604452	11	-0.167903	0	0.167903	0.000000000000000E+000	0.167903	0.0000000E+000	0.000000000000000E+000	0.00134901
2	0	0	1	0	0	0	136.748	-0.599957	-0.60027	-2.2424	-0.607594	-0.607594	11	-0.168776	0	0.168776	0.000000000000000E+000	0.168776	0.0000000E+000	0.000000000000000E+000	0.00134604
2	0	0	1	0	0	0	138.148	-0.599957	-0.600403	-2.23808	-0.61073	-0.61073	11	-0.169647	0	0.169647	0.000000000000000E+000	0.169647	0.0000000E+000	0.000000000000000E+000	0.00134375
2	0	0	1	0	0	0	139.548	-0.599957	-0.600117	-2.21662	-0.613854	-0.613854	11	-0.170515	0	0.170515	0.000000000000000E+000	0.170515	0.0000000E+000	0.000000000000000E+000	0.00133023
2	0	0	1	0	0	0	140.948	-0.599957	-0.60027	-2.11937	-0.616872	-0.616872	11	-0.171353	0	0.171353	0.000000000000000E+000	0.171353	0.0000000E+000	0.000000000000000E+000	0.00127219
2	0	0	1	0	0	0	142.348	-0.599957	-0.600384	-2.06633	-0.619797	-0.619797	11	-0.172166	0	0.172166	0.000000000000000E+000	0.172166	0.0000000E+000	0.000000000000000E+000	0.00124059
2	0	0	1	0	0	0	143.748	-0.599957	-0.60027	-2.04257	-0.622674	-0.622674	11	-0.172965	0	0.172965	0.000000000000000E+000	0.172965	0.0000000E+000	0.000000000000000E+000	0.00122609
2	0	0	1	0	0	0	145.148	-0.599957	-0.600441	-2.02953	-0.625521	-0.625521	11	-0.173756	0	0.173756	0.000000000000000E+000	0.173756	0.0000000E+000	0.000000000000000E+000	0.00121861
2	0	0	1	0	0	0	146.548	-0.599957	-0.600346	-2.01327	-0.628349	-0.628349	11	-0.174541	0	0.174541	0.000000000000000E+000	0.174541	0.0000000E+000	0.000000000000000E+000	0.00120866
2	0	0	1	0	0	0	147.948	-0.599957	-0.600422	-2.00317	-0.631162	-0.631162	11	-0.175323	0	0.175323	0.000000000000000E+000	0.175323	0.0000000E+000	0.000000000000000E+000	0.00120275
2	0	0	1	0	0	0	149.348	-0.599957	-0.600251	-1.99926	-0.633962	-0.633962	11	-0.176101	0	0.176101	0.000000000000000E+000	0.176101	0.0000000E+000	0.000000000000000E+000	0.00120006
2	0	0	1	0	0	0	150.748	-0.599957	-0.600365	-1.989	-0.636751	-0.636751	11	-0.176875	0	0.176875	0.000000000000000E+000	0.176875	0.0000000E+000	0.000000000000000E+000	0.00119413
2	0	0	1	0	0	0	152.148	-0.599957	-0.600231	-1.9783	-0.63953	-0.63953	11	-0.177647	0	0.177647	0.000000000000000E+000	0.177647	0.0000000E+000	0.000000000000000E+000	0.00118744
2	0	0	1	0	0	0	153.548	-0.599957	-0.600365	-1.9776	-0.642301	-0.642301	11	-0.178417	0	0.178417	0.000000000000000E+000	0.178417	0.0000000E+000	0.000000000000000E+000	0.00118728
2	0	0	1	0	0	0	154.948	-0.599957	-0.600422	-1.9739	-0.645064	-0.645064	11	-0.179184	0	0.179184	0.000000000000000E+000	0.179184	0.0000000E+000	0.000000000000000E+000	0.00118517
2	0	0	1	0	0	0	156.348	-0.599957	-0.600384	-1.96265	-0.64782	-0.64782	11	-0.17995	0	0.17995	0.000000000000000E+000	0.17995	0.0000000E+000	0.000000000000000E+000	0.00117835
2	0	0	1	0	0	0	157.748	-0.599957	-0.600365	-1.96002	-0.650569	-0.650569	11	-0.180714	0	0.180714	0.000000000000000E+000	0.180714	0.0000000E+000	0.000000000000000E+000	0.00117673
2	0	0	1	0	0	0	159.148	-0.599957	-0.600422	-1.96193	-0.653313	-0.653313	11	-0.181476	0	0.181476	0.000000000000000E+000	0.181476	0.0000000E+000	0.000000000000000E+000	0.00117799
2	0	0	1	0	0	0	160.548	-0.599957	-0.600346	-1.95254	-0.65605	-0.65605	11	-0.182236	0	0.182236	0.000000000000000E+000	0.182236	0.0000000E+000	0.000000000000000E+000	0.0011722
2	0	0	1	0	0	0	161.948	-0.599957	-0.600365	-1.94106	-0.658779	-0.658779	11	-0.182994	0	0.182994	0.000000000000000E+000	0.182994	0.0000000E+000	0.000000000000000E+000	0.00116535
2	0	0	1	0	0	0	163.348	-0.599957	-0.600327	-1.92027	-0.661494	-0.661494	11	-0.183748	0	0.183748	0.000000000000000E+000	0.183748	0.0000000E+000	0.000000000000000E+000	0.00115279
2	0	0	1	0	0	0	164.748	-0.599957	-0.600327	-1.87194	-0.664136	-0.664136	11	-0.184482	0	0.184482	0.000000000000000E+000	0.184482	0.0000000E+000	0.000000000000000E+000	0.00112378
2	0	0	1	0	0	0	166.148	-0.599957	-0.600231	-1.84405	-0.666727	-0.666727	11	-0.185202	0	0.185202	0.000000000000000E+000	0.185202	0.0000000E+000	0.000000000000000E+000	0.00110686
2	0	0	1	0	0	0	167.548	-0.599957	-0.600136	-1.82331	-0.669288	-0.669288	11	-0.185913	0	0.185913	0.000000000000000E+000	0.185913	0.0000000E+000	0.000000000000000E+000	0.00109423
2	0	0	1	0	0	0	168.948	-0.599957	-0.600308	-1.80609	-0.671831	-0.671831	11	-0.18662	0	0.18662	0.000000000000000E+000	0.18662	0.0000000E+000	0.000000000000000E+000	0.00108421
2	0	0	1	0	0	0	170.348	-0.599957	-0.600308	-1.79787	-0.674362	-0.674362	11	-0.187323	0	0.187323	0.000000000000000E+000	0.187323	0.0000000E+000	0.000000000000000E+000	0.00107927
2	0	0	1	0	0	0	171.748	-0.599957	-0.600289	-1.79361	-0.676882	-0.676882	11	-0.188023	0	0.188023	0.000000000000000E+000	0.188023	0.0000000E+000	0.000000000000000E+000	0.00107668
2	0	0	1	0	0	0	173.148	-0.599957	-0.600346	-1.79048	-0.679396	-0.679396	11	-0.188721	0	0.188721	0.000000000000000E+000	0.188721	0.0000000E+000	0.000000000000000E+000	0.00107491
2	0	0	1	0	0	0	174.548	-0.599957	-0.600289	-1.78812	-0.681901	-0.681901	11	-0.189417	0	0.189417	0.000000000000000E+000	0.189417	0.0000000E+000	0.000000000000000E+000	0.00107339
2	0	0	1	0	0	0	175.948	-0.599957	-0.600212	-1.78764	-0.684399	-0.684399	11	-0.190111	0	0.190111	0.000000000000000E+000	0.190111	0.0000000E+000	0.000000000000000E+000	0.00107296
2	0	0	1	0	0	0	177.348	-0.599957	-0.600365	-1.78348	-0.686891	-0.686891	11	-0.190803	0	0.190803	0.000000000000000E+000	0.190803	0.0000000E+000	0.000000000000000E+000	0.00107074
2	0	0	1	0	0	0	178.748	-0.599957	-0.600422	-1.77873	-0.689376	-0.689376	11	-0.191493	0	0.191493	0.000000000000000E+000	0.191493	0.0000000E+000	0.000000000000000E+000	0.00106799
2	0	0	1	0	0	0	180.148	-0.599957	-0.600422	-1.76691	-0.691856	-0.691856	11	-0.192182	0	0.192182	0.000000000000000E+000	0.192182	0.0000000E+000	0.000000000000000E+000	0.00106089
2	0	0	1	0	0	0	181.548	-0.599957	-0.600251	-1.75931	-0.69433	-0.69433	11	-0.192869	0	0.192869	0.000000000000000E+000	0.192869	0.0000000E+000	0.000000000000000E+000	0.00105603
2	0	0	1	0	0	0	182.948	-0.599957	-0.600403	-1.7542	-0.6968	-0.6968	11	-0.193556	0	0.193556	0.000000000000000E+000	0.193556	0.0000000E+000	0.000000000000000E+000	0.00105323
2	0	0	1	0	0	0	184.348	-0.599957	-0.600308	-1.71736	-0.699241	-0.699241	11	-0.194234	0	0.194234	0.000000000000000E+000	0.194234	0.0000000E+000	0.000000000000000E+000	0.00103094
2	0	0	1	0	0	0	185.748	-0.599957	-0.60027	-1.67738	-0.701606	-0.701606	11	-0.194891	0	0.194891	0.000000000000000E+000	0.194891	0.0000000E+000	0.000000000000000E+000	0.00100688
2	0	0	1	0	0	0	187.148	-0.599957	-0.600308	-1.64889	-0.703928	-0.703928	11	-0.195536	0	0.195536	0.000000000000000E+000	0.195536	0.0000000E+000	0.000000000000000E+000	0.000989842
2	0	0	1	0	0	0	188.548	-0.599957	-0.600441	-1.62552	-0.706224	-0.706224	11	-0.196173	0	0.196173	0.000000000000000E+000	0.196173	0.0000000E+000	0.000000000000000E+000	0.00097603
2	0	0	1	0	0	0	189.948	-0.599957	-0.600289	-1.62237	-0.708504	-0.708504	11	-0.196807	0	0.196807	0.000000000000000E+000	0.196807	0.0000000E+000	0.000000000000000E+000	0.000973888
2	0	0	1	0	0	0	191.348	-0.599957	-0.600346	-1.61877	-0.710771	-0.710771	11	-0.197436	0	0.197436	0.000000000000000E+000	0.197436	0.0000000E+000	0.000000000000000E+000	0.000971822
2	0	0	1	0	0	0	192.748	-0.599957	-0.600346	-1.61297	-0.713028	-0.713028	11	-0.198063	0	0.198063	0.000000000000000E+000	0.198063	0.0000000E+000	0.000000000000000E+000	0.000968338
2	0	0	1	0	0	0	194.148	-0.599957	-0.600441	-1.59416	-0.715275	-0.715275	11	-0.198688	0	0.198688	0.000000000000000E+000	0.198688	0.0000000E+000	0.000000000000000E+000	0.000957202
2	0	0	1	0	0	0	195.548	-0.599957	-0.600422	-1.59472	-0.717515	-0.717515	11	-0.19931	0	0.19931	0.000000000000000E+000	0.19931	0.0000000E+000	0.000000000000000E+000	0.000957505
2	0	0	1	0	0	0	196.948	-0.599957	-0.600327	-1.59598	-0.719748	-0.719748	11	-0.19993	0	0.19993	0.000000000000000E+000	0.19993	0.0000000E+000	0.000000000000000E+000	0.000958112
2	0	0	1	0	0	0	198.348	-0.599957	-0.60027	-1.5934	-0.721975	-0.721975	11	-0.200549	0	0.200549	0.000000000000000E+000	0.200549	0.0000000E+000	0.000000000000000E+000	0.000956468
2	0	0	1	0	0	0	199.748	-0.599957	-0.600308	-1.58116	-0.724195	-0.724195	11	-0.201165	0	0.201165	0.000000000000000E+000	0.201165	0.0000000E+000	0.000000000000000E+000	0.000949184
2	0	0	1	0	0	0	201.148	-0.599957	-0.600384	-1.57832	-0.726409	-0.726409	11	-0.20178	0	0.20178	0.000000000000000E+000	0.20178	0.0000000E+000	0.000000000000000E+000	0.000947595
2	0	0	1	0	0	0	202.548	-0.599957	-0.600174	-1.57769	-0.728619	-0.728619	11	-0.202394	0	0.202394	0.000000000000000E+000	0.202394	0.0000000E+000	0.000000000000000E+000	0.00094689
2	0	0	1	0	0	0	203.948	-0.599957	-0.600346	-1.58159	-0.730824	-0.730824	11	-0.203007	0	0.203007	0.000000000000000E+000	0.203007	0.0000000E+000	0.000000000000000E+000	0.000949502
2	0	0	1	0	0	0	205.348	-0.599957	-0.600441	-1.55619	-0.733019	-0.733019	11	-0.203616	0	0.203616	0.000000000000000E+000	0.203616	0.0000000E+000	0.000000000000000E+000	0.000934398
2	0	0	1	0	0	0	206.748	-0.599957	-0.60048	-1.52653	-0.735173	-0.735173	11	-0.204215	0	0.204215	0.000000000000000E+000	0.204215	0.0000000E+000	0.000000000000000E+000	0.000916649
2	0	0	1	0	0	0	208.148	-0.599957	-0.600289	-1.5026	-0.737289	-0.737289	11	-0.204802	0	0.204802	0.000000000000000E+000	0.204802	0.0000000E+000	0.000000000000000E+000	0.000901996
2	0	0	1	0	0	0	209.548	-0.599957	-0.600308	-1.48352	-0.739378	-0.739378	11	-0.205383	0	0.205383	0.000000000000000E+000	0.205383	0.0000000E+000	0.000000000000000E+000	0.000890568
2	0	0	1	0	0	0	210.948	-0.599957	-0.600365	-1.48044	-0.741451	-0.741451	11	-0.205959	0	0.205959	0.000000000000000E+000	0.205959	0.0000000E+000	0.000000000000000E+000	0.000888805
2	0	0	1	0	0	0	212.348	-0.599957	-0.60027	-1.47605	-0.743514	-0.743514	11	-0.206532	0	0.206532	0.000000000000000E+000	0.206532	0.0000000E+000	0.000000000000000E+000	0.000886028
2	0	0	1	0	0	0	213.748	-0.599957	-0.600327	-1.45488	-0.745566	-0.745566	11	-0.207102	0	0.207102	0.000000000000000E+000	0.207102	0.0000000E+000	0.000000000000000E+000	0.000873405
2	0	0	1	0	0	0	215.148	-0.599957	-0.600289	-1.4588	-0.747612	-0.747612	11	-0.20767	0	0.20767	0.000000000000000E+000	0.20767	0.0000000E+000	0.000000000000000E+000	0.000875702
2	0	0	1	0	0	0	216.548	-0.599957	-0.600308	-1.45675	-0.749651	-0.749651	11	-0.208236	0	0.208236	0.000000000000000E+000	0.208236	0.0000000E+000	0.000000000000000E+000	0.000874499
2	0	0	1	0	0	0	217.948	-0.599957	-0.600327	-1.44931	-0.751686	-0.751686	11	-0.208802	0	0.208802	0.000000000000000E+000	0.208802	0.0000000E+000	0.000000000000000E+000	0.000870062
2	0	0	1	0	0	0	219.348	-0.599957	-0.600346	-1.44343	-0.753712	-0.753712	11	-0.209364	0	0.209364	0.000000000000000E+000	0.209364	0.0000000E+000	0.000000000000000E+000	0.000866558
2	0	0	1	0	0	0	220.748	-0.599957	-0.600461	-1.44459	-0.755734	-0.755734	11	-0.209926	0	0.209926	0.000000000000000E+000	0.209926	0.0000000E+000	0.000000000000000E+000	0.000867419
2	0	0	1	0	0	0	222.148	-0.599957	-0.600365	-1.44298	-0.757752	-0.757752	11	-0.210487	0	0.210487	0.000000000000000E+000	0.210487	0.0000000E+000	0.000000000000000E+000	0.000866312
2	0	0	1	0	0	0	223.548	-0.599957	-0.600384	-1.42795	-0.759763	-0.759763	11	-0.211045	0	0.211045	0.000000000000000E+000	0.211045	0.0000000E+000	0.000000000000000E+000	0.000857317
2	0	0	1	0	0	0	224.948	-0.599957	-0.600327	-1.43491	-0.761771	-0.761771	11	-0.211603	0	0.211603	0.000000000000000E+000	0.211603	0.0000000E+000	0.000000000000000E+000	0.000861417
2	0	0	1	0	0	0	226.348	-0.599957	-0.600346	-1.43353	-0.763774	-0.763774	11	-0.212159	0	0.212159	0.000000000000000E+000	0.212159	0.0000000E+000	0.000000000000000E+000	0.000860614
2	0	0	1	0	0	0	227.748	-0.599957	-0.600384	-1.42256	-0.765774	-0.765774	11	-0.212715	0	0.212715	0.000000000000000E+000	0.212715	0.0000000E+000	0.000000000000000E+000	0.000854081
2	0	0	1	0	0	0	229.148	-0.599957	-0.600441	-1.42212	-0.76777	-0.76777	11	-0.213269	0	0.213269	0.000000000000000E+000	0.213269	0.0000000E+000	0.000000000000000E+000	0.000853898
2	0	0	1	0	0	0	230.548	-0.599957	-0.600308	-1.4254	-0.769764	-0.769764	11	-0.213823	0	0.213823	0.000000000000000E+000	0.213823	0.0000000E+000	0.000000000000000E+000	0.000855678
2	0	0	1	0	0	0	231.948	-0.599957	-0.600422	-1.42231	-0.771754	-0.771754	11	-0.214376	0	0.214376	0.000000000000000E+000	0.214376	0.0000000E+000	0.000000000000000E+000	0.000853986
2	0	0	1	0	0	0	233.348	-0.599957	-0.600308	-1.43423	-0.773745	-0.773745	11	-0.214929	0	0.214929	0.000000000000000E+000	0.214929	0.0000000E+000	0.000000000000000E+000	0.000860976
2	0	0	1	0	0	0	234.748	-0.599957	-0.60027	-1.46782	-0.775775	-0.775775	11	-0.215493	0	0.215493	0.000000000000000E+000	0.215493	0.0000000E+000	0.000000000000000E+000	0.000881089
2	0	0	1	0	0	0	236.148	-0.599957	-0.60027	-1.4774	-0.77784	-0.77784	11	-0.216067	0	0.216067	0.000000000000000E+000	0.216067	0.0000000E+000	0.000000000000000E+000	0.000886841
2	0	0	1	0	0	0	237.548	-0.599957	-0.60027	-1.48991	-0.779923	-0.779923	11	-0.216645	0	0.216645	0.000000000000000E+000	0.216645	0.0000000E+000	0.000000000000000E+000	0.000894348
2	0	0	1	0	0	0	238.948	-0.599957	-0.600251	-1.49935	-0.782015	-0.782015	11	-0.217226	0	0.217226	0.000000000000000E+000	0.217226	0.0000000E+000	0.000000000000000E+000	0.000899984
2	0	0	1	0	0	0	240.348	-0.599957	-0.600289	-1.50283	-0.784111	-0.784111	11	-0.217809	0	0.217809	0.000000000000000E+000	0.217809	0.0000000E+000	0.000000000000000E+000	0.000902134
2	0	0	1	0	0	0	241.748	-0.599957	-0.600384	-1.49606	-0.786209	-0.786209	11	-0.218391	0	0.218391	0.000000000000000E+000	0.218391	0.0000000E+000	0.000000000000000E+000	0.000898211
2	0	0	1	0	0	0	243.148	-0.599957	-0.600365	-1.49555	-0.788306	-0.788306	11	-0.218974	0	0.218974	0.000000000000000E+000	0.218974	0.0000000E+000	0.000000000000000E+000	0.000897875
2	0	0	1	0	0	0	244.548	-0.599957	-0.600308	-1.50011	-0.790403	-0.790403	11	-0.219557	0	0.219557	0.000000000000000E+000	0.219557	0.0000000E+000	0.000000000000000E+000	0.00090053
2	0	0	1	0	0	0	245.948	-0.599957	-0.600251	-1.50138	-0.7925	-0.7925	11	-0.220139	0	0.220139	0.000000000000000E+000	0.220139	0.0000000E+000	0.000000000000000E+000	0.000901205
2	0	0	1	0	0	0	247.348	-0.599957	-0.600441	-1.497	-0.794594	-0.794594	11	-0.22072	0	0.22072	0.000000000000000E+000	0.22072	0.0000000E+000	0.000000000000000E+000	0.00089886
2	0	0	1	0	0	0	248.748	-0.599957	-0.600251	-1.48754	-0.796685	-0.796685	11	-0.221302	0	0.221302	0.000000000000000E+000	0.221302	0.0000000E+000	0.000000000000000E+000	0.000892895
2	0	0	1	0	0	0	250.148	-0.599957	-0.600289	-1.49222	-0.798776	-0.798776	11	-0.221882	0	0.221882	0.000000000000000E+000	0.221882	0.0000000E+000	0.000000000000000E+000	0.000895763
2	0	0	1	0	0	0	251.548	-0.599957	-0.60048	-1.49468	-0.800865	-0.800865	11	-0.222462	0	0.222462	0.000000000000000E+000	0.222462	0.0000000E+000	0.000000000000000E+000	0.000897528
2	0	0	1	0	0	0	252.948	-0.599957	-0.600499	-1.49462	-0.802953	-0.802953	11	-0.223042	0	0.223042	0.000000000000000E+000	0.223042	0.0000000E+000	0.000000000000000E+000	0.000897518
2	0	0	1	0	0	0	254.348	-0.599957	-0.600384	-1.48303	-0.805037	-0.805037	11	-0.223621	0	0.223621	0.000000000000000E+000	0.223621	0.0000000E+000	0.000000000000000E+000	0.000890386
2	0	0	1	0	0	0	255.748	-0.599957	-0.600289	-1.48434	-0.80712	-0.80712	11	-0.2242	0	0.2242	0.000000000000000E+000	0.2242	0.0000000E+000	0.000000000000000E+000	0.000891034
2	0	0	1	0	0	0	257.148	-0.599957	-0.600441	-1.48745	-0.809201	-0.809201	11	-0.224778	0	0.224778	0.000000000000000E+000	0.224778	0.0000000E+000	0.000000000000000E+000	0.000893127
2	0	0	1	0	0	0	258.548	-0.599957	-0.600308	-1.48908	-0.811281	-0.811281	11	-0.225356	0	0.225356	0.000000000000000E+000	0.225356	0.0000000E+000	0.000000000000000E+000	0.000893906
2	0	0	1	0	0	0	259.948	-0.599957	-0.600231	-1.48091	-0.813358	-0.813358	11	-0.225933	0	0.225933	0.000000000000000E+000	0.225933	0.0000000E+000	0.000000000000000E+000	0.000888887
2	0	0	1	0	0	0	261.348	-0.599957	-0.600251	-1.53842	-0.815461	-0.815461	11	-0.226517	0	0.226517	0.000000000000000E+000	0.226517	0.0000000E+000	0.000000000000000E+000	0.000923436
2	0	0	1	0	0	0	262.748	-0.599957	-0.600365	-1.57055	-0.817643	-0.817643	11	-0.227123	0	0.227123	0.000000000000000E+000	0.227123	0.0000000E+000	0.000000000000000E+000	0.000942901
2	0	0	1	0	0	0	264.148	-0.599957	-0.600403	-1.58228	-0.819856	-0.819856	11	-0.227738	0	0.227738	0.000000000000000E+000	0.227738	0.0000000E+000	0.000000000000000E+000	0.000950005
2	0	0	1	0	0	0	265.548	-0.599957	-0.600365	-1.58959	-0.822085	-0.822085	11	-0.228357	0	0.228357	0.000000000000000E+000	0.228357	0.0000000E+000	0.000000000000000E+000	0.000954336
2	0	0	1	0	0	0	266.948	-0.599957	-0.600327	-1.59687	-0.824322	-0.824322	11	-0.228978	0	0.228978	0.000000000000000E+000	0.228978	0.0000000E+000	0.000000000000000E+000	0.000958644
2	0	0	1	0	0	0	268.348	-0.599957	-0.600327	-1.60128	-0.826561	-0.826561	11	-0.2296	0	0.2296	0.000000000000000E+000	0.2296	0.0000000E+000	0.000000000000000E+000	0.000961291
2	0	0	1	0	0	0	269.748	-0.599957	-0.600403	-1.60198	-0.828801	-0.828801	11	-0.230222	0	0.230222	0.000000000000000E+000	0.230222	0.0000000E+000	0.000000000000000E+000	0.000961836
2	0	0	1	0	0	0	271.148	-0.599957	-0.600346	-1.60569	-0.831041	-0.831041	11	-0.230845	0	0.230845	0.000000000000000E+000	0.230845	0.0000000E+000	0.000000000000000E+000	0.000963969
2	0	0	1	0	0	0	272.548	-0.599957	-0.600289	-1.60611	-0.833281	-0.833281	11	-0.231467	0	0.231467	0.000000000000000E+000	0.231467	0.0000000E+000	0.000000000000000E+000	0.000964129
2	0	0	1	0	0	0	273.948	-0.599957	-0.600346	-1.60371	-0.835522	-0.835522	11	-0.23209	0	0.23209	0.000000000000000E+000	0.23209	0.0000000E+000	0.000000000000000E+000	0.000962781
2	0	0	1	0	0	0	275.348	-0.599957	-0.600231	-1.59827	-0.837763	-0.837763	11	-0.232712	0	0.232712	0.000000000000000E+000	0.232712	0.0000000E+000	0.000000000000000E+000	0.000959329
2	0	0	1	0	0	0	276.748	-0.599957	-0.600403	-1.59281	-0.840003	-0.840003	11	-0.233334	0	0.233334	0.000000000000000E+000	0.233334	0.0000000E+000	0.000000000000000E+000	0.000956326
2	0	0	1	0	0	0	278.148	-0.599957	-0.600212	-1.59223	-0.842241	-0.842241	11	-0.233956	0	0.233956	0.000000000000000E+000	0.233956	0.0000000E+000	0.000000000000000E+000	0.000955678
2	0	0	1	0	0	0	279.548	-0.599957	-0.600422	-1.59569	-0.844477	-0.844477	11	-0.234577	0	0.234577	0.000000000000000E+000	0.234577	0.0000000E+000	0.000000000000000E+000	0.000958088
2	0	0	1	0	0	0	280.948	-0.599957	-0.600251	-1.59763	-0.846713	-0.846713	11	-0.235198	0	0.235198	0.000000000000000E+000	0.235198	0.0000000E+000	0.000000000000000E+000	0.000958978
2	0	0	1	0	0	0	282.348	-0.599957	-0.600499	-1.61101	-0.848952	-0.848952	11	-0.23582	0	0.23582	0.000000000000000E+000	0.23582	0.0000000E+000	0.000000000000000E+000	0.000967408
2	0	0	1	0	0	0	283.748	-0.599957	-0.60027	-1.66304	-0.851256	-0.851256	11	-0.23646	0	0.23646	0.000000000000000E+000	0.23646	0.0000000E+000	0.000000000000000E+000	0.000998271
2	0	0	1	0	0	0	285.148	-0.599957	-0.600193	-1.69143	-0.853608	-0.853608	11	-0.237113	0	0.237113	0.000000000000000E+000	0.237113	0.0000000E+000	0.000000000000000E+000	0.00101519
2	0	0	1	0	0	0	286.548	-0.599957	-0.600251	-1.70065	-0.855981	-0.855981	11	-0.237773	0	0.237773	0.000000000000000E+000	0.237773	0.0000000E+000	0.000000000000000E+000	0.00102082
2	0	0	1	0	0	0	287.948	-0.599957	-0.600384	-1.69442	-0.858357	-0.858357	11	-0.238433	0	0.238433	0.000000000000000E+000	0.238433	0.0000000E+000	0.000000000000000E+000	0.0010173
2	0	0	1	0	0	0	289.348	-0.599957	-0.600403	-1.70349	-0.860741	-0.860741	11	-0.239095	0	0.239095	0.000000000000000E+000	0.239095	0.0000000E+000	0.000000000000000E+000	0.00102278
2	0	0	1	0	0	0	290.748	-0.599957	-0.600422	-1.70935	-0.86313	-0.86313	11	-0.239758	0	0.239758	0.000000000000000E+000	0.239758	0.0000000E+000	0.000000000000000E+000	0.00102633
2	0	0	1	0	0	0	292.148	-0.599957	-0.600365	-1.70589	-0.865521	-0.865521	11	-0.240422	0	0.240422	0.000000000000000E+000	0.240422	0.0000000E+000	0.000000000000000E+000	0.00102416
2	0	0	1	0	0	0	293.548	-0.599957	-0.600193	-1.70438	-0.867911	-0.867911	11	-0.241086	0	0.241086	0.000000000000000E+000	0.241086	0.0000000E+000	0.000000000000000E+000	0.00102296
2	0	0	1	0	0	0	294.948	-0.599957	-0.600289	-1.70989	-0.870299	-0.870299	11	-0.24175	0	0.24175	0.000000000000000E+000	0.24175	0.0000000E+000	0.000000000000000E+000	0.00102643
2	0	0	1	0	0	0	296.348	-0.599957	-0.600327	-1.70679	-0.872687	-0.872687	11	-0.242413	0	0.242413	0.000000000000000E+000	0.242413	0.0000000E+000	0.000000000000000E+000	0.00102463
2	0	0	1	0	0	0	297.748	-0.599957	-0.600422	-1.70287	-0.875075	-0.875075	11	-0.243076	0	0.243076	0.000000000000000E+000	0.243076	0.0000000E+000	0.000000000000000E+000	0.00102244
2	0	0	1	0	0	0	299.148	-0.599957	-0.600327	-1.70322	-0.877463	-0.877463	11	-0.24374	0	0.24374	0.000000000000000E+000	0.24374	0.0000000E+000	0.000000000000000E+000	0.00102249
2	0	0	1	0	0	0	300.548	-0.599957	-0.600155	-1.70628	-0.879848	-0.879848	11	-0.244402	0	0.244402	0.000000000000000E+000	0.244402	0.0000000E+000	0.000000000000000E+000	0.00102403
2	0	0	1	0	0	0	301.948	-0.599957	-0.600289	-1.69607	-0.88223	-0.88223	11	-0.245064	0	0.245064	0.000000000000000E+000	0.245064	0.0000000E+000	0.000000000000000E+000	0.00101813
2	0	0	1	0	0	0	303.348	-0.599957	-0.600403	-1.70025	-0.884611	-0.884611	11	-0.245725	0	0.245725	0.000000000000000E+000	0.245725	0.0000000E+000	0.000000000000000E+000	0.00102083
2	0	0	1	0	0	0	304.748	-0.599957	-0.60027	-1.78848	-0.887037	-0.887037	11	-0.246399	0	0.246399	0.000000000000000E+000	0.246399	0.0000000E+000	0.000000000000000E+000	0.00107357
2	0	0	1	0	0	0	306.148	-0.599957	-0.600403	-1.85502	-0.8896	-0.8896	11	-0.247111	0	0.247111	0.000000000000000E+000	0.247111	0.0000000E+000	0.000000000000000E+000	0.00111376
2	0	0	1	0	0	0	307.548	-0.599957	-0.600308	-1.87944	-0.892217	-0.892217	11	-0.247838	0	0.247838	0.000000000000000E+000	0.247838	0.0000000E+000	0.000000000000000E+000	0.00112824
2	0	0	1	0	0	0	308.948	-0.599957	-0.600346	-1.8878	-0.894855	-0.894855	11	-0.248571	0	0.248571	0.000000000000000E+000	0.248571	0.0000000E+000	0.000000000000000E+000	0.00113333
2	0	0	1	0	0	0	310.348	-0.599957	-0.600231	-1.89339	-0.897502	-0.897502	11	-0.249306	0	0.249306	0.000000000000000E+000	0.249306	0.0000000E+000	0.000000000000000E+000	0.00113647
2	0	0	1	0	0	0	311.748	-0.599957	-0.600365	-1.89481	-0.900154	-0.900154	11	-0.250043	0	0.250043	0.000000000000000E+000	0.250043	0.0000000E+000	0.000000000000000E+000	0.00113758
2	0	0	1	0	0	0	313.148	-0.599957	-0.600251	-1.89641	-0.902808	-0.902808	11	-0.25078	0	0.25078	0.000000000000000E+000	0.25078	0.0000000E+000	0.000000000000000E+000	0.00113832
2	0	0	1	0	0	0	314.548	-0.599957	-0.600251	-1.89699	-0.905465	-0.905465	11	-0.251518	0	0.251518	0.000000000000000E+000	0.251518	0.0000000E+000	0.000000000000000E+000	0.00113867
2	0	0	1	0	0	0	315.948	-0.599957	-0.600346	-1.89562	-0.90812	-0.90812	11	-0.252256	0	0.252256	0.000000000000000E+000	0.252256	0.0000000E+000	0.000000000000000E+000	0.00113803
2	0	0	1	0	0	0	317.348	-0.599957	-0.600403	-1.89761	-0.910775	-0.910775	11	-0.252993	0	0.252993	0.000000000000000E+000	0.252993	0.0000000E+000	0.000000000000000E+000	0.00113933
2	0	0	1	0	0	0	318.748	-0.599957	-0.600308	-1.89708	-0.913432	-0.913432	11	-0.253731	0	0.253731	0.000000000000000E+000	0.253731	0.0000000E+000	0.000000000000000E+000	0.00113883
2	0	0	1	0	0	0	320.148	-0.599957	-0.600461	-1.89745	-0.916088	-0.916088	11	-0.254469	0	0.254469	0.000000000000000E+000	0.254469	0.0000000E+000	0.000000000000000E+000	0.00113935
2	0	0	1	0	0	0	321.548	-0.599957	-0.600231	-1.89668	-0.918743	-0.918743	11	-0.255206	0	0.255206	0.000000000000000E+000	0.255206	0.0000000E+000	0.000000000000000E+000	0.00113845
2	0	0	1	0	0	0	322.948	-0.599957	-0.600231	-1.89501	-0.921398	-0.921398	11	-0.255944	0	0.255944	0.000000000000000E+000	0.255944	0.0000000E+000	0.000000000000000E+000	0.00113744
2	0	0	1	0	0	0	324.348	-0.599957	-0.600289	-1.89552	-0.924051	-0.924051	11	-0.256681	0	0.256681	0.000000000000000E+000	0.256681	0.0000000E+000	0.000000000000000E+000	0.00113786
2	0	0	1	0	0	0	325.748	-0.599957	-0.600403	-1.89362	-0.926703	-0.926703	11	-0.257418	0	0.257418	0.000000000000000E+000	0.257418	0.0000000E+000	0.000000000000000E+000	0.00113694
2	0	0	1	0	0	0	327.148	-0.599957	-0.600441	-1.89099	-0.929353	-0.929353	11	-0.258154	0	0.258154	0.000000000000000E+000	0.258154	0.0000000E+000	0.000000000000000E+000	0.00113543
2	0	0	1	0	0	0	328.548	-0.599957	-0.60048	-1.89157	-0.932001	-0.932001	11	-0.258889	0	0.258889	0.000000000000000E+000	0.258889	0.0000000E+000	0.000000000000000E+000	0.00113585
2	0	0	1	0	0	0	329.948	-0.599957	-0.600193	-1.92801	-0.934664	-0.934664	11	-0.259629	0	0.259629	0.000000000000000E+000	0.259629	0.0000000E+000	0.000000000000000E+000	0.00115718
2	0	0	1	0	0	0	331.348	-0.599957	-0.600346	-1.97864	-0.93741	-0.93741	11	-0.260392	0	0.260392	0.000000000000000E+000	0.260392	0.0000000E+000	0.000000000000000E+000	0.00118787
2	0	0	1	0	0	0	332.748	-0.599957	-0.600251	-1.99024	-0.940187	-0.940187	11	-0.261163	0	0.261163	0.000000000000000E+000	0.261163	0.0000000E+000	0.000000000000000E+000	0.00119464
2	0	0	1	0	0	0	334.148	-0.599957	-0.600231	-1.99427	-0.942974	-0.942974	11	-0.261937	0	0.261937	0.000000000000000E+000	0.261937	0.0000000E+000	0.000000000000000E+000	0.00119703
2	0	0	1	0	0	0	335.548	-0.599957	-0.600346	-1.99433	-0.945765	-0.945765	11	-0.262712	0	0.262712	0.000000000000000E+000	0.262712	0.0000000E+000	0.000000000000000E+000	0.00119729
2	0	0	1	0	0	0	336.948	-0.599957	-0.600251	-1.9946	-0.948557	-0.948557	11	-0.263488	0	0.263488	0.000000000000000E+000	0.263488	0.0000000E+000	0.000000000000000E+000	0.00119726
2	0	0	1	0	0	0	338.348	-0.599957	-0.600327	-1.99487	-0.951351	-0.951351	11	-0.264264	0	0.264264	0.000000000000000E+000	0.264264	0.0000000E+000	0.000000000000000E+000	0.00119757
2	0	0	1	0	0	0	339.748	-0.599957	-0.600251	-1.99451	-0.954145	-0.954145	11	-0.26504	0	0.26504	0.000000000000000E+000	0.26504	0.0000000E+000	0.000000000000000E+000	0.00119721
2	0	0	1	0	0	0	341.148	-0.599957	-0.600422	-1.9927	-0.956939	-0.956939	11	-0.265817	0	0.265817	0.000000000000000E+000	0.265817	0.0000000E+000	0.000000000000000E+000	0.00119646
2	0	0	1	0	0	0	342.548	-0.599957	-0.600308	-1.99446	-0.959733	-0.959733	11	-0.266592	0	0.266592	0.000000000000000E+000	0.266592	0.0000000E+000	0.000000000000000E+000	0.00119729
2	0	0	1	0	0	0	343.948	-0.599957	-0.600441	-1.99447	-0.962525	-0.962525	11	-0.267368	0	0.267368	0.000000000000000E+000	0.267368	0.0000000E+000	0.000000000000000E+000	0.00119756
2	0	0	1	0	0	0	345.348	-0.599957	-0.600251	-1.9929	-0.965315	-0.965315	11	-0.268143	0	0.268143	0.000000000000000E+000	0.268143	0.0000000E+000	0.000000000000000E+000	0.00119624
2	0	0	1	0	0	0	346.748	-0.599957	-0.600403	-1.98977	-0.968101	-0.968101	11	-0.268917	0	0.268917	0.000000000000000E+000	0.268917	0.0000000E+000	0.000000000000000E+000	0.00119466
2	0	0	1	0	0	0	348.148	-0.599957	-0.600327	-1.9894	-0.970884	-0.970884	11	-0.26969	0	0.26969	0.000000000000000E+000	0.26969	0.0000000E+000	0.000000000000000E+000	0.00119429
2	0	0	1	0	0	0	349.548	-0.599957	-0.600289	-1.98809	-0.973666	-0.973666	11	-0.270463	0	0.270463	0.000000000000000E+000	0.270463	0.0000000E+000	0.000000000000000E+000	0.00119343
2	0	0	1	0	0	0	350.948	-0.599957	-0.600422	-1.98422	-0.976445	-0.976445	11	-0.271235	0	0.271235	0.000000000000000E+000	0.271235	0.0000000E+000	0.000000000000000E+000	0.00119137
2	0	0	1	0	0	0	352.348	-0.599957	-0.600308	-2.11386	-0.979322	-0.979322	11	-0.272034	0	0.272034	0.000000000000000E+000	0.272034	0.0000000E+000	0.000000000000000E+000	0.00126897
2	0	0	1	0	0	0	353.748	-0.599957	-0.600384	-2.13459	-0.9823	-0.9823	11	-0.272861	0	0.272861	0.000000000000000E+000	0.272861	0.0000000E+000	0.000000000000000E+000	0.00128157
2	0	0	1	0	0	0	355.148	-0.599957	-0.600384	-2.1428	-0.985294	-0.985294	11	-0.273693	0	0.273693	0.000000000000000E+000	0.273693	0.0000000E+000	0.000000000000000E+000	0.0012865
2	0	0	1	0	0	0	356.548	-0.599957	-0.600327	-2.14315	-0.988295	-0.988295	11	-0.274526	0	0.274526	0.000000000000000E+000	0.274526	0.0000000E+000	0.000000000000000E+000	0.00128659
2	0	0	1	0	0	0	357.948	-0.599957	-0.600403	-2.14427	-0.991298	-0.991298	11	-0.27536	0	0.27536	0.000000000000000E+000	0.27536	0.0000000E+000	0.000000000000000E+000	0.00128743
2	0	0	1	0	0	0	359.348	-0.599957	-0.600327	-2.14303	-0.994299	-0.994299	11	-0.276194	0	0.276194	0.000000000000000E+000	0.276194	0.0000000E+000	0.000000000000000E+000	0.00128652
2	0	0	1	0	0	0	360.748	-0.599957	-0.600441	-2.14123	-0.997298	-0.997298	11	-0.277027	0	0.277027	0.000000000000000E+000	0.277027	0.0000000E+000	0.000000000000000E+000	0.00128569
2	0	0	1	0	0	0	362.148	-0.599957	-0.600251	-2.14193	-1.00029	-1.00029	11	-0.27786	0	0.27786	0.000000000000000E+000	0.27786	0.0000000E+000	0.000000000000000E+000	0.00128569
2	0	0	1	0	0	0	363.548	-0.599957	-0.600441	-2.13877	-1.00329	-1.00329	11	-0.278692	0	0.278692	0.000000000000000E+000	0.278692	0.0000000E+000	0.000000000000000E+000	0.00128421
2	0	0	1	0	0	0	364.948	-0.599957	-0.600251	-2.13746	-1.00629	-1.00629	11	-0.279524	0	0.279524	0.000000000000000E+000	0.279524	0.0000000E+000	0.000000000000000E+000	0.00128301
2	0	0	1	0	0	0	366.348	-0.599957	-0.600231	-2.13693	-1.00928	-1.00928	11	-0.280355	0	0.280355	0.000000000000000E+000	0.280355	0.0000000E+000	0.000000000000000E+000	0.00128266
2	0	0	1	0	0	0	367.748	-0.599957	-0.600174	-2.13397	-1.01227	-1.01227	11	-0.281186	0	0.281186	0.000000000000000E+000	0.281186	0.0000000E+000	0.000000000000000E+000	0.00128076
2	0	0	1	0	0	0	369.148	-0.599957	-0.600365	-2.13287	-1.01526	-1.01526	11	-0.282016	0	0.282016	0.000000000000000E+000	0.282016	0.0000000E+000	0.000000000000000E+000	0.0012805
2	0	0	1	0	0	0	370.548	-0.599957	-0.600136	-2.13232	-1.01824	-1.01824	11	-0.282845	0	0.282845	0.000000000000000E+000	0.282845	0.0000000E+000	0.000000000000000E+000	0.00127968
2	0	0	1	0	0	0	371.948	-0.599957	-0.600365	-2.1279	-1.02122	-1.02122	11	-0.283673	0	0.283673	0.000000000000000E+000	0.283673	0.0000000E+000	0.000000000000000E+000	0.00127752
2	0	0	1	0	0	0	373.348	-0.599957	-0.600308	-2.12634	-1.0242	-1.0242	11	-0.284501	0	0.284501	0.000000000000000E+000	0.284501	0.0000000E+000	0.000000000000000E+000	0.00127646
2	0	0	1	0	0	0	374.748	-0.599957	-0.600346	-2.1236	-1.02718	-1.02718	11	-0.285327	0	0.285327	0.000000000000000E+000	0.285327	0.0000000E+000	0.000000000000000E+000	0.0012749
2	0	0	1	0	0	0	376.148	-0.599957	-0.600384	-2.12107	-1.03015	-1.03015	11	-0.286152	0	0.286152	0.000000000000000E+000	0.286152	0.0000000E+000	0.000000000000000E+000	0.00127346
2	0	0	1	0	0	0	377.378	-0.599957	-0.600327	-2.12042	-1.03276	-1.03276	11	-0.286877	0	0.286877	0.000000000000000E+000	0.286877	0.0000000E+000	0.000000000000000E+000	0.00127295