File: ZnPVAGAECH_08 03-23-22-ZnPVAGA ECH KL 100-1600 rpm at -0_8V vs RHE RDE2_03_CA_C05(1).mpt
EC-Lab ASCII FILE
Nb header lines : 66

Chronoamperometry / Chronocoulometry

Run on channel : 5 (SN 6729)
User :
CE vs. WE compliance from -10 V to 10 V
Electrode connection : standard
Potential control : Ewe
Ewe ctrl range : min = -2.50 V, max = 2.50 V
Safety Limits :
	Do not start on E overload
Acquisition started on : 03/23/2022 16:11:12.156
Technique started on : 03/23/2022 16:14:33.485
Loaded Setting File :  NONE
Saved on :
	File : 03-23-22-ZnPVAGA  ECH KL 100-1600 rpm at -0_8V vs RHE RDE2_03_CA_C05.mpr
	Directory : \\research-scb.egr.msu.edu\research-scb\Mindy\Koutecky Levich\Zn GA PVA 001\ECH\03-23-22\
	Host : 35.9.136.210
Device : VSP (SN 0012)
Address : 35.9.137.65
EC-Lab for windows v11.43 (software)
Internet server v11.40 (firmware)
Command interpretor v11.40 (firmware)
Electrode material : Au/Pd
Initial state :
Electrolyte : NaCl (0.2M)
Comments : Fe(CN)63-/Fe(CN)64- 5.10-3 M
Reference electrode : SCE Saturated Calomel Electrode (0.241 V)
Electrode surface area : 0.196 cm²
Characteristic mass : 0.001 g
Equivalent Weight : 0.000 g/eq.
Density : 0.000 g/cm3
Volume (V) : 0.001 cm³
Cycle Definition : Charge/Discharge alternance
Ei (V)              -0.700
vs.                 Ref
ti (h:m:s)          0:30:0.0000
Imax                pass
unit Imax           mA
Imin                pass
unit Imin           mA
dQM                 0.000
unit dQM            mA.h
record              <I>
dI                  5.000
unit dI             µA
dQ                  0.000
unit dQ             mA.h
dt (s)              0.1000
dta (s)             0.1000
E range min (V)     -2.500
E range max (V)     2.500
I Range             Auto
I Range min         Unset
I Range max         Unset
I Range init        Unset
Bandwidth           5
goto Ns'            0
nc cycles           0

Modify on : 03/23/2022 16:14
Ei (V)              -0.900

mode	ox/red	error	control changes	Ns changes	counter inc.	Ns	time/s	control/V	Ewe/V	<I>/mA	dQ/C	(Q-Qo)/C	I Range	Q charge/discharge/mA.h	half cycle	Q discharge/mA.h	Q charge/mA.h	Capacity/mA.h	Efficiency/%	cycle number	P/W
2	0	0	0	0	0	0	201.329	-0.899966	-0.900286	-2.06349	-9.30527e-05	-9.30527e-05	11	-2.5848e-05	0	2.5848e-05	0.000000000000000E+000	2.5848e-05	0.0000000E+000	0.000000000000000E+000	0.00185773
2	0	0	0	0	0	0	202.329	-0.899966	-0.900248	-1.73747	-0.00187525	-0.00187525	11	-0.000520902	0	0.000520902	0.000000000000000E+000	0.000520902	0.0000000E+000	0.000000000000000E+000	0.00156415
2	0	0	0	0	0	0	203.329	-0.899966	-0.900343	-1.72669	-0.00360548	-0.00360548	11	-0.00100152	0	0.00100152	0.000000000000000E+000	0.00100152	0.0000000E+000	0.000000000000000E+000	0.00155462
2	0	0	0	0	0	0	204.329	-0.899966	-0.900382	-1.72247	-0.00532959	-0.00532959	11	-0.00148044	0	0.00148044	0.000000000000000E+000	0.00148044	0.0000000E+000	0.000000000000000E+000	0.00155088
2	0	0	0	0	0	0	205.329	-0.899966	-0.900515	-1.71771	-0.00704912	-0.00704912	11	-0.00195809	0	0.00195809	0.000000000000000E+000	0.00195809	0.0000000E+000	0.000000000000000E+000	0.00154682
2	0	0	0	0	0	0	206.329	-0.899966	-0.900229	-1.71707	-0.0087669	-0.0087669	11	-0.00243525	0	0.00243525	0.000000000000000E+000	0.00243525	0.0000000E+000	0.000000000000000E+000	0.00154575
2	0	0	0	0	0	0	207.329	-0.899966	-0.900324	-1.71781	-0.010485	-0.010485	11	-0.00291251	0	0.00291251	0.000000000000000E+000	0.00291251	0.0000000E+000	0.000000000000000E+000	0.00154659
2	0	0	0	0	0	0	208.329	-0.899966	-0.900534	-1.71472	-0.0122014	-0.0122014	11	-0.00338928	0	0.00338928	0.000000000000000E+000	0.00338928	0.0000000E+000	0.000000000000000E+000	0.00154417
2	0	0	0	0	0	0	209.329	-0.899966	-0.900534	-1.71523	-0.0139169	-0.0139169	11	-0.00386581	0	0.00386581	0.000000000000000E+000	0.00386581	0.0000000E+000	0.000000000000000E+000	0.00154462
2	0	0	0	0	0	0	210.329	-0.899966	-0.900343	-1.7157	-0.0156334	-0.0156334	11	-0.00434261	0	0.00434261	0.000000000000000E+000	0.00434261	0.0000000E+000	0.000000000000000E+000	0.00154472
2	0	0	0	0	0	0	211.329	-0.899966	-0.900267	-1.71592	-0.0173491	-0.0173491	11	-0.0048192	0	0.0048192	0.000000000000000E+000	0.0048192	0.0000000E+000	0.000000000000000E+000	0.00154479
2	0	0	0	0	0	0	212.329	-0.899966	-0.900343	-1.71656	-0.0190649	-0.0190649	11	-0.0052958	0	0.0052958	0.000000000000000E+000	0.0052958	0.0000000E+000	0.000000000000000E+000	0.00154549
2	0	0	0	0	0	0	213.329	-0.899966	-0.900248	-1.71465	-0.0207805	-0.0207805	11	-0.00577236	0	0.00577236	0.000000000000000E+000	0.00577236	0.0000000E+000	0.000000000000000E+000	0.00154361
2	0	0	0	0	0	0	214.329	-0.899966	-0.900248	-1.71538	-0.0224951	-0.0224951	11	-0.00624865	0	0.00624865	0.000000000000000E+000	0.00624865	0.0000000E+000	0.000000000000000E+000	0.00154427
2	0	0	0	0	0	0	215.329	-0.899966	-0.90042	-1.71522	-0.0242108	-0.0242108	11	-0.00672521	0	0.00672521	0.000000000000000E+000	0.00672521	0.0000000E+000	0.000000000000000E+000	0.00154442
2	0	0	0	0	0	0	216.329	-0.899966	-0.900343	-1.71755	-0.0259281	-0.0259281	11	-0.00720225	0	0.00720225	0.000000000000000E+000	0.00720225	0.0000000E+000	0.000000000000000E+000	0.00154638
2	0	0	0	0	0	0	217.329	-0.899966	-0.900382	-1.6783	-0.0276354	-0.0276354	11	-0.0076765	0	0.0076765	0.000000000000000E+000	0.0076765	0.0000000E+000	0.000000000000000E+000	0.00151111
2	0	0	0	0	0	0	218.329	-0.899966	-0.900324	-1.65616	-0.029296	-0.029296	11	-0.00813777	0	0.00813777	0.000000000000000E+000	0.00813777	0.0000000E+000	0.000000000000000E+000	0.00149108
2	0	0	0	0	0	0	219.329	-0.899966	-0.900286	-1.65065	-0.0309487	-0.0309487	11	-0.00859686	0	0.00859686	0.000000000000000E+000	0.00859686	0.0000000E+000	0.000000000000000E+000	0.00148606
2	0	0	0	0	0	0	220.329	-0.899966	-0.900286	-1.64603	-0.0325959	-0.0325959	11	-0.0090544	0	0.0090544	0.000000000000000E+000	0.0090544	0.0000000E+000	0.000000000000000E+000	0.0014819
2	0	0	0	0	0	0	221.329	-0.899966	-0.900401	-1.64369	-0.0342403	-0.0342403	11	-0.0095112	0	0.0095112	0.000000000000000E+000	0.0095112	0.0000000E+000	0.000000000000000E+000	0.00147998
2	0	0	0	0	0	0	222.329	-0.899966	-0.900324	-1.64139	-0.0358809	-0.0358809	11	-0.00996692	0	0.00996692	0.000000000000000E+000	0.00996692	0.0000000E+000	0.000000000000000E+000	0.00147778
2	0	0	0	0	0	0	223.329	-0.899966	-0.90021	-1.6402	-0.037521	-0.037521	11	-0.0104225	0	0.0104225	0.000000000000000E+000	0.0104225	0.0000000E+000	0.000000000000000E+000	0.00147653
2	0	0	0	0	0	0	224.329	-0.899966	-0.900267	-1.63628	-0.0391592	-0.0391592	11	-0.0108776	0	0.0108776	0.000000000000000E+000	0.0108776	0.0000000E+000	0.000000000000000E+000	0.00147309
2	0	0	0	0	0	0	225.329	-0.899966	-0.900458	-1.63772	-0.0407965	-0.0407965	11	-0.0113323	0	0.0113323	0.000000000000000E+000	0.0113323	0.0000000E+000	0.000000000000000E+000	0.0014747
2	0	0	0	0	0	0	226.329	-0.899966	-0.900343	-1.63823	-0.0424345	-0.0424345	11	-0.0117874	0	0.0117874	0.000000000000000E+000	0.0117874	0.0000000E+000	0.000000000000000E+000	0.00147497
2	0	0	0	0	0	0	227.329	-0.899966	-0.900305	-1.63953	-0.0440735	-0.0440735	11	-0.0122426	0	0.0122426	0.000000000000000E+000	0.0122426	0.0000000E+000	0.000000000000000E+000	0.00147608
2	0	0	0	0	0	0	228.329	-0.899966	-0.900286	-1.63856	-0.0457127	-0.0457127	11	-0.012698	0	0.012698	0.000000000000000E+000	0.012698	0.0000000E+000	0.000000000000000E+000	0.00147517
2	0	0	0	0	0	0	229.329	-0.899966	-0.900248	-1.63714	-0.0473517	-0.0473517	11	-0.0131532	0	0.0131532	0.000000000000000E+000	0.0131532	0.0000000E+000	0.000000000000000E+000	0.00147384
2	0	0	0	0	0	0	230.329	-0.899966	-0.900286	-1.63723	-0.0489892	-0.0489892	11	-0.0136081	0	0.0136081	0.000000000000000E+000	0.0136081	0.0000000E+000	0.000000000000000E+000	0.00147397
2	0	0	0	0	0	0	231.329	-0.899966	-0.900382	-1.63529	-0.0506252	-0.0506252	11	-0.0140625	0	0.0140625	0.000000000000000E+000	0.0140625	0.0000000E+000	0.000000000000000E+000	0.00147239
2	0	0	0	0	0	0	232.329	-0.899966	-0.90042	-1.63661	-0.0522609	-0.0522609	11	-0.0145169	0	0.0145169	0.000000000000000E+000	0.0145169	0.0000000E+000	0.000000000000000E+000	0.00147363
2	0	0	0	0	0	0	233.329	-0.899966	-0.900343	-1.63697	-0.053898	-0.053898	11	-0.0149717	0	0.0149717	0.000000000000000E+000	0.0149717	0.0000000E+000	0.000000000000000E+000	0.00147384
2	0	0	0	0	0	0	234.329	-0.899966	-0.900362	-1.63459	-0.0555334	-0.0555334	11	-0.0154259	0	0.0154259	0.000000000000000E+000	0.0154259	0.0000000E+000	0.000000000000000E+000	0.00147172
2	0	0	0	0	0	0	235.329	-0.899966	-0.900439	-1.63455	-0.0571674	-0.0571674	11	-0.0158798	0	0.0158798	0.000000000000000E+000	0.0158798	0.0000000E+000	0.000000000000000E+000	0.00147181
2	0	0	0	0	0	0	236.329	-0.899966	-0.900362	-1.63286	-0.0588004	-0.0588004	11	-0.0163334	0	0.0163334	0.000000000000000E+000	0.0163334	0.0000000E+000	0.000000000000000E+000	0.00147017
2	0	0	0	0	0	0	237.329	-0.899966	-0.900305	-1.63172	-0.0604324	-0.0604324	11	-0.0167868	0	0.0167868	0.000000000000000E+000	0.0167868	0.0000000E+000	0.000000000000000E+000	0.00146905
2	0	0	0	0	0	0	238.329	-0.899966	-0.900305	-1.63191	-0.0620645	-0.0620645	11	-0.0172401	0	0.0172401	0.000000000000000E+000	0.0172401	0.0000000E+000	0.000000000000000E+000	0.00146921
2	0	0	0	0	0	0	239.329	-0.899966	-0.900458	-1.63386	-0.0636969	-0.0636969	11	-0.0176936	0	0.0176936	0.000000000000000E+000	0.0176936	0.0000000E+000	0.000000000000000E+000	0.00147122
2	0	0	0	0	0	0	240.329	-0.899966	-0.900401	-1.63163	-0.0653294	-0.0653294	11	-0.0181471	0	0.0181471	0.000000000000000E+000	0.0181471	0.0000000E+000	0.000000000000000E+000	0.00146912
2	0	0	0	0	0	0	241.329	-0.899966	-0.900362	-1.631	-0.0669604	-0.0669604	11	-0.0186001	0	0.0186001	0.000000000000000E+000	0.0186001	0.0000000E+000	0.000000000000000E+000	0.00146849
2	0	0	0	0	0	0	242.329	-0.899966	-0.900382	-1.6294	-0.0685909	-0.0685909	11	-0.019053	0	0.019053	0.000000000000000E+000	0.019053	0.0000000E+000	0.000000000000000E+000	0.00146708
2	0	0	0	0	0	0	243.329	-0.899966	-0.90042	-1.62296	-0.0702197	-0.0702197	11	-0.0195055	0	0.0195055	0.000000000000000E+000	0.0195055	0.0000000E+000	0.000000000000000E+000	0.00146134
2	0	0	0	0	0	0	244.329	-0.899966	-0.900343	-1.59782	-0.0718278	-0.0718278	11	-0.0199522	0	0.0199522	0.000000000000000E+000	0.0199522	0.0000000E+000	0.000000000000000E+000	0.00143859
2	0	0	0	0	0	0	245.329	-0.899966	-0.900324	-1.5889	-0.0734196	-0.0734196	11	-0.0203943	0	0.0203943	0.000000000000000E+000	0.0203943	0.0000000E+000	0.000000000000000E+000	0.00143052
2	0	0	0	0	0	0	246.329	-0.899966	-0.900496	-1.58398	-0.0750055	-0.0750055	11	-0.0208349	0	0.0208349	0.000000000000000E+000	0.0208349	0.0000000E+000	0.000000000000000E+000	0.00142637
2	0	0	0	0	0	0	247.329	-0.899966	-0.900362	-1.58154	-0.0765885	-0.0765885	11	-0.0212746	0	0.0212746	0.000000000000000E+000	0.0212746	0.0000000E+000	0.000000000000000E+000	0.00142396
2	0	0	0	0	0	0	248.329	-0.899966	-0.900191	-1.57911	-0.0781697	-0.0781697	11	-0.0217138	0	0.0217138	0.000000000000000E+000	0.0217138	0.0000000E+000	0.000000000000000E+000	0.0014215
2	0	0	0	0	0	0	249.329	-0.899966	-0.900324	-1.57939	-0.0797492	-0.0797492	11	-0.0221526	0	0.0221526	0.000000000000000E+000	0.0221526	0.0000000E+000	0.000000000000000E+000	0.00142196
2	0	0	0	0	0	0	250.329	-0.899966	-0.900362	-1.57677	-0.0813266	-0.0813266	11	-0.0225907	0	0.0225907	0.000000000000000E+000	0.0225907	0.0000000E+000	0.000000000000000E+000	0.00141967
2	0	0	0	0	0	0	251.329	-0.899966	-0.900362	-1.57611	-0.0829023	-0.0829023	11	-0.0230284	0	0.0230284	0.000000000000000E+000	0.0230284	0.0000000E+000	0.000000000000000E+000	0.00141907
2	0	0	0	0	0	0	252.329	-0.899966	-0.900286	-1.57696	-0.084479	-0.084479	11	-0.0234664	0	0.0234664	0.000000000000000E+000	0.0234664	0.0000000E+000	0.000000000000000E+000	0.00141972
2	0	0	0	0	0	0	253.329	-0.899966	-0.900324	-1.57713	-0.086056	-0.086056	11	-0.0239044	0	0.0239044	0.000000000000000E+000	0.0239044	0.0000000E+000	0.000000000000000E+000	0.00141993
2	0	0	0	0	0	0	254.329	-0.899966	-0.900362	-1.57774	-0.087634	-0.087634	11	-0.0243428	0	0.0243428	0.000000000000000E+000	0.0243428	0.0000000E+000	0.000000000000000E+000	0.00142053
2	0	0	0	0	0	0	255.329	-0.899966	-0.90042	-1.57718	-0.0892112	-0.0892112	11	-0.0247809	0	0.0247809	0.000000000000000E+000	0.0247809	0.0000000E+000	0.000000000000000E+000	0.00142012
2	0	0	0	0	0	0	256.329	-0.899966	-0.900324	-1.57713	-0.0907878	-0.0907878	11	-0.0252188	0	0.0252188	0.000000000000000E+000	0.0252188	0.0000000E+000	0.000000000000000E+000	0.00141993
2	0	0	0	0	0	0	257.329	-0.899966	-0.900362	-1.57627	-0.092364	-0.092364	11	-0.0256567	0	0.0256567	0.000000000000000E+000	0.0256567	0.0000000E+000	0.000000000000000E+000	0.00141921
2	0	0	0	0	0	0	258.329	-0.899966	-0.900458	-1.57532	-0.0939386	-0.0939386	11	-0.0260941	0	0.0260941	0.000000000000000E+000	0.0260941	0.0000000E+000	0.000000000000000E+000	0.00141851
2	0	0	0	0	0	0	259.329	-0.899966	-0.900477	-1.57293	-0.0955129	-0.0955129	11	-0.0265314	0	0.0265314	0.000000000000000E+000	0.0265314	0.0000000E+000	0.000000000000000E+000	0.00141639
2	0	0	0	0	0	0	260.329	-0.899966	-0.900477	-1.57436	-0.0970869	-0.0970869	11	-0.0269686	0	0.0269686	0.000000000000000E+000	0.0269686	0.0000000E+000	0.000000000000000E+000	0.00141767
2	0	0	0	0	0	0	261.329	-0.899966	-0.900477	-1.57477	-0.0986619	-0.0986619	11	-0.0274061	0	0.0274061	0.000000000000000E+000	0.0274061	0.0000000E+000	0.000000000000000E+000	0.00141805
2	0	0	0	0	0	0	262.329	-0.899966	-0.900477	-1.57452	-0.100238	-0.100238	11	-0.0278438	0	0.0278438	0.000000000000000E+000	0.0278438	0.0000000E+000	0.000000000000000E+000	0.00141782
2	0	0	0	0	0	0	263.329	-0.899966	-0.900382	-1.57165	-0.101811	-0.101811	11	-0.0282809	0	0.0282809	0.000000000000000E+000	0.0282809	0.0000000E+000	0.000000000000000E+000	0.00141508
2	0	0	0	0	0	0	264.329	-0.899966	-0.900248	-1.52691	-0.10336	-0.10336	11	-0.028711	0	0.028711	0.000000000000000E+000	0.028711	0.0000000E+000	0.000000000000000E+000	0.0013746
2	0	0	0	0	0	0	265.329	-0.899966	-0.900362	-1.50134	-0.104871	-0.104871	11	-0.0291307	0	0.0291307	0.000000000000000E+000	0.0291307	0.0000000E+000	0.000000000000000E+000	0.00135175
2	0	0	0	0	0	0	266.329	-0.899966	-0.900286	-1.48739	-0.106364	-0.106364	11	-0.0295457	0	0.0295457	0.000000000000000E+000	0.0295457	0.0000000E+000	0.000000000000000E+000	0.00133907
2	0	0	0	0	0	0	267.329	-0.899966	-0.900343	-1.47995	-0.107847	-0.107847	11	-0.0299576	0	0.0299576	0.000000000000000E+000	0.0299576	0.0000000E+000	0.000000000000000E+000	0.00133247
2	0	0	0	0	0	0	268.329	-0.899966	-0.900324	-1.47364	-0.109323	-0.109323	11	-0.0303675	0	0.0303675	0.000000000000000E+000	0.0303675	0.0000000E+000	0.000000000000000E+000	0.00132675
2	0	0	0	0	0	0	269.329	-0.899966	-0.900305	-1.47326	-0.110797	-0.110797	11	-0.0307769	0	0.0307769	0.000000000000000E+000	0.0307769	0.0000000E+000	0.000000000000000E+000	0.00132638
2	0	0	0	0	0	0	270.329	-0.899966	-0.900229	-1.46975	-0.112268	-0.112268	11	-0.0311857	0	0.0311857	0.000000000000000E+000	0.0311857	0.0000000E+000	0.000000000000000E+000	0.00132311
2	0	0	0	0	0	0	271.329	-0.899966	-0.900458	-1.46945	-0.113738	-0.113738	11	-0.0315938	0	0.0315938	0.000000000000000E+000	0.0315938	0.0000000E+000	0.000000000000000E+000	0.00132318
2	0	0	0	0	0	0	272.329	-0.899966	-0.900401	-1.4671	-0.115207	-0.115207	11	-0.0320018	0	0.0320018	0.000000000000000E+000	0.0320018	0.0000000E+000	0.000000000000000E+000	0.00132098
2	0	0	0	0	0	0	273.329	-0.899966	-0.900324	-1.46947	-0.116676	-0.116676	11	-0.0324099	0	0.0324099	0.000000000000000E+000	0.0324099	0.0000000E+000	0.000000000000000E+000	0.001323
2	0	0	0	0	0	0	274.329	-0.899966	-0.900324	-1.46769	-0.118144	-0.118144	11	-0.0328178	0	0.0328178	0.000000000000000E+000	0.0328178	0.0000000E+000	0.000000000000000E+000	0.00132139
2	0	0	0	0	0	0	275.329	-0.899966	-0.900382	-1.46798	-0.119612	-0.119612	11	-0.0332255	0	0.0332255	0.000000000000000E+000	0.0332255	0.0000000E+000	0.000000000000000E+000	0.00132175
2	0	0	0	0	0	0	276.329	-0.899966	-0.900382	-1.46642	-0.121079	-0.121079	11	-0.0336331	0	0.0336331	0.000000000000000E+000	0.0336331	0.0000000E+000	0.000000000000000E+000	0.00132034
2	0	0	0	0	0	0	277.329	-0.899966	-0.900324	-1.46592	-0.122545	-0.122545	11	-0.0340404	0	0.0340404	0.000000000000000E+000	0.0340404	0.0000000E+000	0.000000000000000E+000	0.00131981
2	0	0	0	0	0	0	278.329	-0.899966	-0.900343	-1.46319	-0.12401	-0.12401	11	-0.0344473	0	0.0344473	0.000000000000000E+000	0.0344473	0.0000000E+000	0.000000000000000E+000	0.00131738
2	0	0	0	0	0	0	279.329	-0.899966	-0.900477	-1.46263	-0.125474	-0.125474	11	-0.0348539	0	0.0348539	0.000000000000000E+000	0.0348539	0.0000000E+000	0.000000000000000E+000	0.00131707
2	0	0	0	0	0	0	280.329	-0.899966	-0.900362	-1.46032	-0.126936	-0.126936	11	-0.0352599	0	0.0352599	0.000000000000000E+000	0.0352599	0.0000000E+000	0.000000000000000E+000	0.00131482
2	0	0	0	0	0	0	281.329	-0.899966	-0.900324	-1.45039	-0.128394	-0.128394	11	-0.0356651	0	0.0356651	0.000000000000000E+000	0.0356651	0.0000000E+000	0.000000000000000E+000	0.00130582
2	0	0	0	0	0	0	282.329	-0.899966	-0.900382	-1.42343	-0.129829	-0.129829	11	-0.0360635	0	0.0360635	0.000000000000000E+000	0.0360635	0.0000000E+000	0.000000000000000E+000	0.00128163
2	0	0	0	0	0	0	283.329	-0.899966	-0.90042	-1.40637	-0.131242	-0.131242	11	-0.0364561	0	0.0364561	0.000000000000000E+000	0.0364561	0.0000000E+000	0.000000000000000E+000	0.00126632
2	0	0	0	0	0	0	284.329	-0.899966	-0.900401	-1.39528	-0.132642	-0.132642	11	-0.036845	0	0.036845	0.000000000000000E+000	0.036845	0.0000000E+000	0.000000000000000E+000	0.00125631
2	0	0	0	0	0	0	285.329	-0.899966	-0.900324	-1.38985	-0.134033	-0.134033	11	-0.0372314	0	0.0372314	0.000000000000000E+000	0.0372314	0.0000000E+000	0.000000000000000E+000	0.00125132
2	0	0	0	0	0	0	286.329	-0.899966	-0.900382	-1.38775	-0.135421	-0.135421	11	-0.037617	0	0.037617	0.000000000000000E+000	0.037617	0.0000000E+000	0.000000000000000E+000	0.00124951
2	0	0	0	0	0	0	287.329	-0.899966	-0.900343	-1.38172	-0.136806	-0.136806	11	-0.0380017	0	0.0380017	0.000000000000000E+000	0.0380017	0.0000000E+000	0.000000000000000E+000	0.00124402
2	0	0	0	0	0	0	288.329	-0.899966	-0.900286	-1.37918	-0.138185	-0.138185	11	-0.0383848	0	0.0383848	0.000000000000000E+000	0.0383848	0.0000000E+000	0.000000000000000E+000	0.00124165
2	0	0	0	0	0	0	289.329	-0.899966	-0.900343	-1.37845	-0.139564	-0.139564	11	-0.0387677	0	0.0387677	0.000000000000000E+000	0.0387677	0.0000000E+000	0.000000000000000E+000	0.00124108
2	0	0	0	0	0	0	290.329	-0.899966	-0.900324	-1.37913	-0.140942	-0.140942	11	-0.0391505	0	0.0391505	0.000000000000000E+000	0.0391505	0.0000000E+000	0.000000000000000E+000	0.00124166
2	0	0	0	0	0	0	291.329	-0.899966	-0.900324	-1.37878	-0.142319	-0.142319	11	-0.0395332	0	0.0395332	0.000000000000000E+000	0.0395332	0.0000000E+000	0.000000000000000E+000	0.00124135
2	0	0	0	0	0	0	292.329	-0.899966	-0.900324	-1.37797	-0.143698	-0.143698	11	-0.0399162	0	0.0399162	0.000000000000000E+000	0.0399162	0.0000000E+000	0.000000000000000E+000	0.00124062
2	0	0	0	0	0	0	293.329	-0.899966	-0.900477	-1.38031	-0.145079	-0.145079	11	-0.0402996	0	0.0402996	0.000000000000000E+000	0.0402996	0.0000000E+000	0.000000000000000E+000	0.00124294
2	0	0	0	0	0	0	294.329	-0.899966	-0.900458	-1.37855	-0.146458	-0.146458	11	-0.0406827	0	0.0406827	0.000000000000000E+000	0.0406827	0.0000000E+000	0.000000000000000E+000	0.00124132
2	0	0	0	0	0	0	295.329	-0.899966	-0.900286	-1.37997	-0.147837	-0.147837	11	-0.041066	0	0.041066	0.000000000000000E+000	0.041066	0.0000000E+000	0.000000000000000E+000	0.00124237
2	0	0	0	0	0	0	296.329	-0.899966	-0.900362	-1.38036	-0.149218	-0.149218	11	-0.0414494	0	0.0414494	0.000000000000000E+000	0.0414494	0.0000000E+000	0.000000000000000E+000	0.00124282
2	0	0	0	0	0	0	297.329	-0.899966	-0.900343	-1.37892	-0.150598	-0.150598	11	-0.0418327	0	0.0418327	0.000000000000000E+000	0.0418327	0.0000000E+000	0.000000000000000E+000	0.00124151
2	0	0	0	0	0	0	298.329	-0.899966	-0.90042	-1.37797	-0.151976	-0.151976	11	-0.0422156	0	0.0422156	0.000000000000000E+000	0.0422156	0.0000000E+000	0.000000000000000E+000	0.00124075
2	0	0	0	0	0	0	299.329	-0.899966	-0.900401	-1.37838	-0.153354	-0.153354	11	-0.0425984	0	0.0425984	0.000000000000000E+000	0.0425984	0.0000000E+000	0.000000000000000E+000	0.0012411
2	0	0	0	0	0	0	300.329	-0.899966	-0.900305	-1.37712	-0.154732	-0.154732	11	-0.0429811	0	0.0429811	0.000000000000000E+000	0.0429811	0.0000000E+000	0.000000000000000E+000	0.00123983
2	0	0	0	0	0	0	301.329	-0.899966	-0.900401	-1.37608	-0.156109	-0.156109	11	-0.0433637	0	0.0433637	0.000000000000000E+000	0.0433637	0.0000000E+000	0.000000000000000E+000	0.00123903
2	0	0	0	0	0	0	302.329	-0.899966	-0.900286	-1.35347	-0.157477	-0.157477	11	-0.0437435	0	0.0437435	0.000000000000000E+000	0.0437435	0.0000000E+000	0.000000000000000E+000	0.00121851
2	0	0	0	0	0	0	303.329	-0.899966	-0.900324	-1.32711	-0.158815	-0.158815	11	-0.0441153	0	0.0441153	0.000000000000000E+000	0.0441153	0.0000000E+000	0.000000000000000E+000	0.00119483
2	0	0	0	0	0	0	304.329	-0.899966	-0.900343	-1.31085	-0.160133	-0.160133	11	-0.0444814	0	0.0444814	0.000000000000000E+000	0.0444814	0.0000000E+000	0.000000000000000E+000	0.00118022
2	0	0	0	0	0	0	305.329	-0.899966	-0.900382	-1.30008	-0.161437	-0.161437	11	-0.0448436	0	0.0448436	0.000000000000000E+000	0.0448436	0.0000000E+000	0.000000000000000E+000	0.00117056
2	0	0	0	0	0	0	306.329	-0.899966	-0.900382	-1.29474	-0.162733	-0.162733	11	-0.0452037	0	0.0452037	0.000000000000000E+000	0.0452037	0.0000000E+000	0.000000000000000E+000	0.00116576
2	0	0	0	0	0	0	307.329	-0.899966	-0.900382	-1.29144	-0.164025	-0.164025	11	-0.0455626	0	0.0455626	0.000000000000000E+000	0.0455626	0.0000000E+000	0.000000000000000E+000	0.00116279
2	0	0	0	0	0	0	308.329	-0.899966	-0.900324	-1.28668	-0.165313	-0.165313	11	-0.0459204	0	0.0459204	0.000000000000000E+000	0.0459204	0.0000000E+000	0.000000000000000E+000	0.00115843
2	0	0	0	0	0	0	309.329	-0.899966	-0.900401	-1.28354	-0.166598	-0.166598	11	-0.0462773	0	0.0462773	0.000000000000000E+000	0.0462773	0.0000000E+000	0.000000000000000E+000	0.0011557
2	0	0	0	0	0	0	310.329	-0.899966	-0.900267	-1.27949	-0.16788	-0.16788	11	-0.0466333	0	0.0466333	0.000000000000000E+000	0.0466333	0.0000000E+000	0.000000000000000E+000	0.00115188
2	0	0	0	0	0	0	311.329	-0.899966	-0.900439	-1.28184	-0.169161	-0.169161	11	-0.0469892	0	0.0469892	0.000000000000000E+000	0.0469892	0.0000000E+000	0.000000000000000E+000	0.00115421
2	0	0	0	0	0	0	312.329	-0.899966	-0.900382	-1.27826	-0.170441	-0.170441	11	-0.0473447	0	0.0473447	0.000000000000000E+000	0.0473447	0.0000000E+000	0.000000000000000E+000	0.00115093
2	0	0	0	0	0	0	313.329	-0.899966	-0.900382	-1.27907	-0.171719	-0.171719	11	-0.0476998	0	0.0476998	0.000000000000000E+000	0.0476998	0.0000000E+000	0.000000000000000E+000	0.00115166
2	0	0	0	0	0	0	314.329	-0.899966	-0.900324	-1.27911	-0.172998	-0.172998	11	-0.0480549	0	0.0480549	0.000000000000000E+000	0.0480549	0.0000000E+000	0.000000000000000E+000	0.00115162
2	0	0	0	0	0	0	315.329	-0.899966	-0.900401	-1.27712	-0.174275	-0.174275	11	-0.0484098	0	0.0484098	0.000000000000000E+000	0.0484098	0.0000000E+000	0.000000000000000E+000	0.00114992
2	0	0	0	0	0	0	316.329	-0.899966	-0.900382	-1.27276	-0.17555	-0.17555	11	-0.048764	0	0.048764	0.000000000000000E+000	0.048764	0.0000000E+000	0.000000000000000E+000	0.00114597
2	0	0	0	0	0	0	317.329	-0.899966	-0.900362	-1.27371	-0.176824	-0.176824	11	-0.0491177	0	0.0491177	0.000000000000000E+000	0.0491177	0.0000000E+000	0.000000000000000E+000	0.0011468
2	0	0	0	0	0	0	318.329	-0.899966	-0.900362	-1.2749	-0.178098	-0.178098	11	-0.0494717	0	0.0494717	0.000000000000000E+000	0.0494717	0.0000000E+000	0.000000000000000E+000	0.00114787
2	0	0	0	0	0	0	319.329	-0.899966	-0.900343	-1.27395	-0.179373	-0.179373	11	-0.0498258	0	0.0498258	0.000000000000000E+000	0.0498258	0.0000000E+000	0.000000000000000E+000	0.001147
2	0	0	0	0	0	0	320.329	-0.899966	-0.900343	-1.27156	-0.180647	-0.180647	11	-0.0501797	0	0.0501797	0.000000000000000E+000	0.0501797	0.0000000E+000	0.000000000000000E+000	0.00114484
2	0	0	0	0	0	0	321.329	-0.899966	-0.900343	-1.27363	-0.18192	-0.18192	11	-0.0505333	0	0.0505333	0.000000000000000E+000	0.0505333	0.0000000E+000	0.000000000000000E+000	0.0011467
2	0	0	0	0	0	0	322.329	-0.899966	-0.900382	-1.27588	-0.183195	-0.183195	11	-0.0508875	0	0.0508875	0.000000000000000E+000	0.0508875	0.0000000E+000	0.000000000000000E+000	0.00114878
2	0	0	0	0	0	0	323.329	-0.899966	-0.900382	-1.27303	-0.18447	-0.18447	11	-0.0512417	0	0.0512417	0.000000000000000E+000	0.0512417	0.0000000E+000	0.000000000000000E+000	0.00114621
2	0	0	0	0	0	0	324.329	-0.899966	-0.900362	-1.27636	-0.185744	-0.185744	11	-0.0515956	0	0.0515956	0.000000000000000E+000	0.0515956	0.0000000E+000	0.000000000000000E+000	0.00114919
2	0	0	0	0	0	0	325.329	-0.899966	-0.900362	-1.27507	-0.18702	-0.18702	11	-0.05195	0	0.05195	0.000000000000000E+000	0.05195	0.0000000E+000	0.000000000000000E+000	0.00114803
2	0	0	0	0	0	0	326.329	-0.899966	-0.900401	-1.26597	-0.188291	-0.188291	11	-0.0523031	0	0.0523031	0.000000000000000E+000	0.0523031	0.0000000E+000	0.000000000000000E+000	0.00113988
2	0	0	0	0	0	0	327.329	-0.899966	-0.900401	-1.24884	-0.189548	-0.189548	11	-0.0526522	0	0.0526522	0.000000000000000E+000	0.0526522	0.0000000E+000	0.000000000000000E+000	0.00112445
2	0	0	0	0	0	0	328.329	-0.899966	-0.900401	-1.23597	-0.190789	-0.190789	11	-0.0529971	0	0.0529971	0.000000000000000E+000	0.0529971	0.0000000E+000	0.000000000000000E+000	0.00111287
2	0	0	0	0	0	0	329.329	-0.899966	-0.900382	-1.22684	-0.192019	-0.192019	11	-0.0533387	0	0.0533387	0.000000000000000E+000	0.0533387	0.0000000E+000	0.000000000000000E+000	0.00110462
2	0	0	0	0	0	0	330.329	-0.899966	-0.900286	-1.21845	-0.193241	-0.193241	11	-0.0536781	0	0.0536781	0.000000000000000E+000	0.0536781	0.0000000E+000	0.000000000000000E+000	0.00109695
2	0	0	0	0	0	0	331.329	-0.899966	-0.90021	-1.21205	-0.194456	-0.194456	11	-0.0540156	0	0.0540156	0.000000000000000E+000	0.0540156	0.0000000E+000	0.000000000000000E+000	0.0010911
2	0	0	0	0	0	0	332.329	-0.899966	-0.900343	-1.20926	-0.195667	-0.195667	11	-0.054352	0	0.054352	0.000000000000000E+000	0.054352	0.0000000E+000	0.000000000000000E+000	0.00108875
2	0	0	0	0	0	0	333.329	-0.899966	-0.90042	-1.20478	-0.196875	-0.196875	11	-0.0546874	0	0.0546874	0.000000000000000E+000	0.0546874	0.0000000E+000	0.000000000000000E+000	0.00108481
2	0	0	0	0	0	0	334.329	-0.899966	-0.90042	-1.20425	-0.198079	-0.198079	11	-0.055022	0	0.055022	0.000000000000000E+000	0.055022	0.0000000E+000	0.000000000000000E+000	0.00108433
2	0	0	0	0	0	0	335.329	-0.899966	-0.900324	-1.20068	-0.199282	-0.199282	11	-0.055356	0	0.055356	0.000000000000000E+000	0.055356	0.0000000E+000	0.000000000000000E+000	0.001081
2	0	0	0	0	0	0	336.329	-0.899966	-0.90042	-1.2006	-0.200483	-0.200483	11	-0.0556896	0	0.0556896	0.000000000000000E+000	0.0556896	0.0000000E+000	0.000000000000000E+000	0.00108105
2	0	0	0	0	0	0	337.329	-0.899966	-0.900343	-1.19947	-0.201682	-0.201682	11	-0.0560226	0	0.0560226	0.000000000000000E+000	0.0560226	0.0000000E+000	0.000000000000000E+000	0.00107993
2	0	0	0	0	0	0	338.329	-0.899966	-0.900382	-1.1965	-0.202878	-0.202878	11	-0.0563551	0	0.0563551	0.000000000000000E+000	0.0563551	0.0000000E+000	0.000000000000000E+000	0.00107731
2	0	0	0	0	0	0	339.329	-0.899966	-0.900286	-1.19666	-0.204075	-0.204075	11	-0.0566875	0	0.0566875	0.000000000000000E+000	0.0566875	0.0000000E+000	0.000000000000000E+000	0.00107733
2	0	0	0	0	0	0	340.329	-0.899966	-0.900382	-1.197	-0.205271	-0.205271	11	-0.0570198	0	0.0570198	0.000000000000000E+000	0.0570198	0.0000000E+000	0.000000000000000E+000	0.00107776
2	0	0	0	0	0	0	341.329	-0.899966	-0.900324	-1.19627	-0.206468	-0.206468	11	-0.0573522	0	0.0573522	0.000000000000000E+000	0.0573522	0.0000000E+000	0.000000000000000E+000	0.00107703
2	0	0	0	0	0	0	342.329	-0.899966	-0.900343	-1.19773	-0.207665	-0.207665	11	-0.0576848	0	0.0576848	0.000000000000000E+000	0.0576848	0.0000000E+000	0.000000000000000E+000	0.00107836
2	0	0	0	0	0	0	343.329	-0.899966	-0.900267	-1.19897	-0.208863	-0.208863	11	-0.0580176	0	0.0580176	0.000000000000000E+000	0.0580176	0.0000000E+000	0.000000000000000E+000	0.00107939
2	0	0	0	0	0	0	344.329	-0.899966	-0.900343	-1.1994	-0.210063	-0.210063	11	-0.0583509	0	0.0583509	0.000000000000000E+000	0.0583509	0.0000000E+000	0.000000000000000E+000	0.00107987
2	0	0	0	0	0	0	345.329	-0.899966	-0.900305	-1.19989	-0.211262	-0.211262	11	-0.0586839	0	0.0586839	0.000000000000000E+000	0.0586839	0.0000000E+000	0.000000000000000E+000	0.00108026
2	0	0	0	0	0	0	346.329	-0.899966	-0.900362	-1.1985	-0.212461	-0.212461	11	-0.0590168	0	0.0590168	0.000000000000000E+000	0.0590168	0.0000000E+000	0.000000000000000E+000	0.00107908
2	0	0	0	0	0	0	347.329	-0.899966	-0.900382	-1.1985	-0.213659	-0.213659	11	-0.0593498	0	0.0593498	0.000000000000000E+000	0.0593498	0.0000000E+000	0.000000000000000E+000	0.00107911
2	0	0	0	0	0	0	348.329	-0.899966	-0.900343	-1.19909	-0.214858	-0.214858	11	-0.0596827	0	0.0596827	0.000000000000000E+000	0.0596827	0.0000000E+000	0.000000000000000E+000	0.0010796
2	0	0	0	0	0	0	349.329	-0.899966	-0.900401	-1.19892	-0.216057	-0.216057	11	-0.0600157	0	0.0600157	0.000000000000000E+000	0.0600157	0.0000000E+000	0.000000000000000E+000	0.0010795
2	0	0	0	0	0	0	350.329	-0.899966	-0.900248	-1.19887	-0.217256	-0.217256	11	-0.0603488	0	0.0603488	0.000000000000000E+000	0.0603488	0.0000000E+000	0.000000000000000E+000	0.00107928
2	0	0	0	0	0	0	351.329	-0.899966	-0.900477	-1.1977	-0.218455	-0.218455	11	-0.0606818	0	0.0606818	0.000000000000000E+000	0.0606818	0.0000000E+000	0.000000000000000E+000	0.0010785
2	0	0	0	0	0	0	352.329	-0.899966	-0.900496	-1.19977	-0.219654	-0.219654	11	-0.0610149	0	0.0610149	0.000000000000000E+000	0.0610149	0.0000000E+000	0.000000000000000E+000	0.00108039
2	0	0	0	0	0	0	353.329	-0.899966	-0.900343	-1.2192	-0.220863	-0.220863	11	-0.0613509	0	0.0613509	0.000000000000000E+000	0.0613509	0.0000000E+000	0.000000000000000E+000	0.0010977
2	0	0	0	0	0	0	354.329	-0.899966	-0.900401	-1.2325	-0.22209	-0.22209	11	-0.0616916	0	0.0616916	0.000000000000000E+000	0.0616916	0.0000000E+000	0.000000000000000E+000	0.00110975
2	0	0	0	0	0	0	355.329	-0.899966	-0.900382	-1.2437	-0.223329	-0.223329	11	-0.0620359	0	0.0620359	0.000000000000000E+000	0.0620359	0.0000000E+000	0.000000000000000E+000	0.00111981
2	0	0	0	0	0	0	356.329	-0.899966	-0.900343	-1.25363	-0.224579	-0.224579	11	-0.062383	0	0.062383	0.000000000000000E+000	0.062383	0.0000000E+000	0.000000000000000E+000	0.0011287
2	0	0	0	0	0	0	357.329	-0.899966	-0.900362	-1.2579	-0.225835	-0.225835	11	-0.0627319	0	0.0627319	0.000000000000000E+000	0.0627319	0.0000000E+000	0.000000000000000E+000	0.00113257
2	0	0	0	0	0	0	358.329	-0.899966	-0.900324	-1.26273	-0.227096	-0.227096	11	-0.0630821	0	0.0630821	0.000000000000000E+000	0.0630821	0.0000000E+000	0.000000000000000E+000	0.00113686
2	0	0	0	0	0	0	359.329	-0.899966	-0.90042	-1.26406	-0.22836	-0.22836	11	-0.0634333	0	0.0634333	0.000000000000000E+000	0.0634333	0.0000000E+000	0.000000000000000E+000	0.00113818
2	0	0	0	0	0	0	360.329	-0.899966	-0.900458	-1.26697	-0.229626	-0.229626	11	-0.063785	0	0.063785	0.000000000000000E+000	0.063785	0.0000000E+000	0.000000000000000E+000	0.00114085
2	0	0	0	0	0	0	361.329	-0.899966	-0.900229	-1.26777	-0.230893	-0.230893	11	-0.0641369	0	0.0641369	0.000000000000000E+000	0.0641369	0.0000000E+000	0.000000000000000E+000	0.00114128
2	0	0	0	0	0	0	362.329	-0.899966	-0.900324	-1.26459	-0.232159	-0.232159	11	-0.0644887	0	0.0644887	0.000000000000000E+000	0.0644887	0.0000000E+000	0.000000000000000E+000	0.00113854
2	0	0	0	0	0	0	363.329	-0.899966	-0.90042	-1.2666	-0.233425	-0.233425	11	-0.0648402	0	0.0648402	0.000000000000000E+000	0.0648402	0.0000000E+000	0.000000000000000E+000	0.00114047
2	0	0	0	0	0	0	364.329	-0.899966	-0.900324	-1.26295	-0.234689	-0.234689	11	-0.0651913	0	0.0651913	0.000000000000000E+000	0.0651913	0.0000000E+000	0.000000000000000E+000	0.00113707
2	0	0	0	0	0	0	365.329	-0.899966	-0.90042	-1.26149	-0.235952	-0.235952	11	-0.0655422	0	0.0655422	0.000000000000000E+000	0.0655422	0.0000000E+000	0.000000000000000E+000	0.00113587
2	0	0	0	0	0	0	366.329	-0.899966	-0.900267	-1.26058	-0.237213	-0.237213	11	-0.0658926	0	0.0658926	0.000000000000000E+000	0.0658926	0.0000000E+000	0.000000000000000E+000	0.00113486
2	0	0	0	0	0	0	367.329	-0.899966	-0.900248	-1.26425	-0.238475	-0.238475	11	-0.0662431	0	0.0662431	0.000000000000000E+000	0.0662431	0.0000000E+000	0.000000000000000E+000	0.00113814
2	0	0	0	0	0	0	368.329	-0.899966	-0.900324	-1.26302	-0.239739	-0.239739	11	-0.0665941	0	0.0665941	0.000000000000000E+000	0.0665941	0.0000000E+000	0.000000000000000E+000	0.00113713
2	0	0	0	0	0	0	369.329	-0.899966	-0.900343	-1.26399	-0.241002	-0.241002	11	-0.066945	0	0.066945	0.000000000000000E+000	0.066945	0.0000000E+000	0.000000000000000E+000	0.00113803
2	0	0	0	0	0	0	370.329	-0.899966	-0.900248	-1.29626	-0.242282	-0.242282	11	-0.0673007	0	0.0673007	0.000000000000000E+000	0.0673007	0.0000000E+000	0.000000000000000E+000	0.00116696
2	0	0	0	0	0	0	371.329	-0.899966	-0.900305	-1.3204	-0.243594	-0.243594	11	-0.0676649	0	0.0676649	0.000000000000000E+000	0.0676649	0.0000000E+000	0.000000000000000E+000	0.00118877
2	0	0	0	0	0	0	372.329	-0.899966	-0.900401	-1.33427	-0.244921	-0.244921	11	-0.0680337	0	0.0680337	0.000000000000000E+000	0.0680337	0.0000000E+000	0.000000000000000E+000	0.00120137
2	0	0	0	0	0	0	373.329	-0.899966	-0.900343	-1.33825	-0.246257	-0.246257	11	-0.0684049	0	0.0684049	0.000000000000000E+000	0.0684049	0.0000000E+000	0.000000000000000E+000	0.00120488
2	0	0	0	0	0	0	374.329	-0.899966	-0.900248	-1.34201	-0.247599	-0.247599	11	-0.0687775	0	0.0687775	0.000000000000000E+000	0.0687775	0.0000000E+000	0.000000000000000E+000	0.00120814
2	0	0	0	0	0	0	375.329	-0.899966	-0.900382	-1.34483	-0.248941	-0.248941	11	-0.0691504	0	0.0691504	0.000000000000000E+000	0.0691504	0.0000000E+000	0.000000000000000E+000	0.00121086
2	0	0	0	0	0	0	376.329	-0.899966	-0.900324	-1.34509	-0.250286	-0.250286	11	-0.0695239	0	0.0695239	0.000000000000000E+000	0.0695239	0.0000000E+000	0.000000000000000E+000	0.00121102
2	0	0	0	0	0	0	377.329	-0.899966	-0.900248	-1.34923	-0.251634	-0.251634	11	-0.0698985	0	0.0698985	0.000000000000000E+000	0.0698985	0.0000000E+000	0.000000000000000E+000	0.00121464
2	0	0	0	0	0	0	378.329	-0.899966	-0.900343	-1.34841	-0.252984	-0.252984	11	-0.0702732	0	0.0702732	0.000000000000000E+000	0.0702732	0.0000000E+000	0.000000000000000E+000	0.00121403
2	0	0	0	0	0	0	379.329	-0.899966	-0.900439	-1.34922	-0.254334	-0.254334	11	-0.0706482	0	0.0706482	0.000000000000000E+000	0.0706482	0.0000000E+000	0.000000000000000E+000	0.00121489
2	0	0	0	0	0	0	380.329	-0.899966	-0.900401	-1.35032	-0.255685	-0.255685	11	-0.0710235	0	0.0710235	0.000000000000000E+000	0.0710235	0.0000000E+000	0.000000000000000E+000	0.00121583
2	0	0	0	0	0	0	381.329	-0.899966	-0.900343	-1.35085	-0.257035	-0.257035	11	-0.0713985	0	0.0713985	0.000000000000000E+000	0.0713985	0.0000000E+000	0.000000000000000E+000	0.00121623
2	0	0	0	0	0	0	382.329	-0.899966	-0.900267	-1.34877	-0.258385	-0.258385	11	-0.0717735	0	0.0717735	0.000000000000000E+000	0.0717735	0.0000000E+000	0.000000000000000E+000	0.00121425
2	0	0	0	0	0	0	383.329	-0.899966	-0.900362	-1.35156	-0.259735	-0.259735	11	-0.0721487	0	0.0721487	0.000000000000000E+000	0.0721487	0.0000000E+000	0.000000000000000E+000	0.0012169
2	0	0	0	0	0	0	384.329	-0.899966	-0.900401	-1.34996	-0.261085	-0.261085	11	-0.0725236	0	0.0725236	0.000000000000000E+000	0.0725236	0.0000000E+000	0.000000000000000E+000	0.00121551
2	0	0	0	0	0	0	385.329	-0.899966	-0.90042	-1.35009	-0.262436	-0.262436	11	-0.0728988	0	0.0728988	0.000000000000000E+000	0.0728988	0.0000000E+000	0.000000000000000E+000	0.00121564
2	0	0	0	0	0	0	386.329	-0.899966	-0.900324	-1.35355	-0.263787	-0.263787	11	-0.0732741	0	0.0732741	0.000000000000000E+000	0.0732741	0.0000000E+000	0.000000000000000E+000	0.00121863
2	0	0	0	0	0	0	387.329	-0.899966	-0.900324	-1.34996	-0.265138	-0.265138	11	-0.0736493	0	0.0736493	0.000000000000000E+000	0.0736493	0.0000000E+000	0.000000000000000E+000	0.0012154
2	0	0	0	0	0	0	388.329	-0.899966	-0.900286	-1.34922	-0.266488	-0.266488	11	-0.0740245	0	0.0740245	0.000000000000000E+000	0.0740245	0.0000000E+000	0.000000000000000E+000	0.00121468
2	0	0	0	0	0	0	389.329	-0.899966	-0.900324	-1.35377	-0.267839	-0.267839	11	-0.0743996	0	0.0743996	0.000000000000000E+000	0.0743996	0.0000000E+000	0.000000000000000E+000	0.00121884
2	0	0	0	0	0	0	390.329	-0.899966	-0.90042	-1.34841	-0.269189	-0.269189	11	-0.0747748	0	0.0747748	0.000000000000000E+000	0.0747748	0.0000000E+000	0.000000000000000E+000	0.00121414
2	0	0	0	0	0	0	391.329	-0.899966	-0.900286	-1.35088	-0.27054	-0.27054	11	-0.0751499	0	0.0751499	0.000000000000000E+000	0.0751499	0.0000000E+000	0.000000000000000E+000	0.00121617
2	0	0	0	0	0	0	392.329	-0.899966	-0.900248	-1.35148	-0.27189	-0.27189	11	-0.0755251	0	0.0755251	0.000000000000000E+000	0.0755251	0.0000000E+000	0.000000000000000E+000	0.00121666
2	0	0	0	0	0	0	393.329	-0.899966	-0.900382	-1.354	-0.27324	-0.27324	11	-0.0759	0	0.0759	0.000000000000000E+000	0.0759	0.0000000E+000	0.000000000000000E+000	0.00121911
2	0	0	0	0	0	0	394.329	-0.899966	-0.900382	-1.38107	-0.27461	-0.27461	11	-0.0762805	0	0.0762805	0.000000000000000E+000	0.0762805	0.0000000E+000	0.000000000000000E+000	0.00124349
2	0	0	0	0	0	0	395.329	-0.899966	-0.900439	-1.40027	-0.276003	-0.276003	11	-0.0766674	0	0.0766674	0.000000000000000E+000	0.0766674	0.0000000E+000	0.000000000000000E+000	0.00126086
2	0	0	0	0	0	0	396.329	-0.899966	-0.900401	-1.408	-0.277408	-0.277408	11	-0.0770577	0	0.0770577	0.000000000000000E+000	0.0770577	0.0000000E+000	0.000000000000000E+000	0.00126776
2	0	0	0	0	0	0	397.329	-0.899966	-0.900248	-1.41176	-0.278818	-0.278818	11	-0.0774494	0	0.0774494	0.000000000000000E+000	0.0774494	0.0000000E+000	0.000000000000000E+000	0.00127093
2	0	0	0	0	0	0	398.329	-0.899966	-0.900458	-1.41369	-0.280232	-0.280232	11	-0.0778423	0	0.0778423	0.000000000000000E+000	0.0778423	0.0000000E+000	0.000000000000000E+000	0.00127297
2	0	0	0	0	0	0	399.329	-0.899966	-0.900324	-1.41652	-0.281648	-0.281648	11	-0.0782355	0	0.0782355	0.000000000000000E+000	0.0782355	0.0000000E+000	0.000000000000000E+000	0.00127533
2	0	0	0	0	0	0	400.329	-0.899966	-0.900343	-1.41416	-0.283062	-0.283062	11	-0.0786283	0	0.0786283	0.000000000000000E+000	0.0786283	0.0000000E+000	0.000000000000000E+000	0.00127323
2	0	0	0	0	0	0	401.329	-0.899966	-0.90042	-1.41659	-0.284478	-0.284478	11	-0.0790216	0	0.0790216	0.000000000000000E+000	0.0790216	0.0000000E+000	0.000000000000000E+000	0.00127553
2	0	0	0	0	0	0	402.329	-0.899966	-0.900496	-1.41482	-0.285894	-0.285894	11	-0.0794149	0	0.0794149	0.000000000000000E+000	0.0794149	0.0000000E+000	0.000000000000000E+000	0.00127404
2	0	0	0	0	0	0	403.329	-0.899966	-0.90042	-1.41651	-0.287309	-0.287309	11	-0.0798081	0	0.0798081	0.000000000000000E+000	0.0798081	0.0000000E+000	0.000000000000000E+000	0.00127545
2	0	0	0	0	0	0	404.329	-0.899966	-0.900305	-1.41516	-0.288725	-0.288725	11	-0.0802014	0	0.0802014	0.000000000000000E+000	0.0802014	0.0000000E+000	0.000000000000000E+000	0.00127408
2	0	0	0	0	0	0	405.329	-0.899966	-0.900401	-1.417	-0.290141	-0.290141	11	-0.0805948	0	0.0805948	0.000000000000000E+000	0.0805948	0.0000000E+000	0.000000000000000E+000	0.00127586
2	0	0	0	0	0	0	406.329	-0.899966	-0.900286	-1.41435	-0.291557	-0.291557	11	-0.0809881	0	0.0809881	0.000000000000000E+000	0.0809881	0.0000000E+000	0.000000000000000E+000	0.00127332
2	0	0	0	0	0	0	407.329	-0.899966	-0.900267	-1.41577	-0.292972	-0.292972	11	-0.0813812	0	0.0813812	0.000000000000000E+000	0.0813812	0.0000000E+000	0.000000000000000E+000	0.00127457
2	0	0	0	0	0	0	408.329	-0.899966	-0.900286	-1.41379	-0.294387	-0.294387	11	-0.0817742	0	0.0817742	0.000000000000000E+000	0.0817742	0.0000000E+000	0.000000000000000E+000	0.00127281
2	0	0	0	0	0	0	409.329	-0.899966	-0.900382	-1.41745	-0.295802	-0.295802	11	-0.0821673	0	0.0821673	0.000000000000000E+000	0.0821673	0.0000000E+000	0.000000000000000E+000	0.00127624
2	0	0	0	0	0	0	410.329	-0.899966	-0.900267	-1.42694	-0.297222	-0.297222	11	-0.0825616	0	0.0825616	0.000000000000000E+000	0.0825616	0.0000000E+000	0.000000000000000E+000	0.00128462
2	0	0	0	0	0	0	411.329	-0.899966	-0.900592	-1.46812	-0.298673	-0.298673	11	-0.0829647	0	0.0829647	0.000000000000000E+000	0.0829647	0.0000000E+000	0.000000000000000E+000	0.00132218
2	0	0	0	0	0	0	412.329	-0.899966	-0.900401	-1.48769	-0.300153	-0.300153	11	-0.083376	0	0.083376	0.000000000000000E+000	0.083376	0.0000000E+000	0.000000000000000E+000	0.00133952
2	0	0	0	0	0	0	413.329	-0.899966	-0.900382	-1.49685	-0.301647	-0.301647	11	-0.0837909	0	0.0837909	0.000000000000000E+000	0.0837909	0.0000000E+000	0.000000000000000E+000	0.00134774
2	0	0	0	0	0	0	414.329	-0.899966	-0.90042	-1.50202	-0.303145	-0.303145	11	-0.0842071	0	0.0842071	0.000000000000000E+000	0.0842071	0.0000000E+000	0.000000000000000E+000	0.00135244
2	0	0	0	0	0	0	415.329	-0.899966	-0.900267	-1.50425	-0.304649	-0.304649	11	-0.0846247	0	0.0846247	0.000000000000000E+000	0.0846247	0.0000000E+000	0.000000000000000E+000	0.00135423
2	0	0	0	0	0	0	416.329	-0.899966	-0.900401	-1.50616	-0.306155	-0.306155	11	-0.085043	0	0.085043	0.000000000000000E+000	0.085043	0.0000000E+000	0.000000000000000E+000	0.00135615
2	0	0	0	0	0	0	417.329	-0.899966	-0.900191	-1.50782	-0.307663	-0.307663	11	-0.0854618	0	0.0854618	0.000000000000000E+000	0.0854618	0.0000000E+000	0.000000000000000E+000	0.00135732
2	0	0	0	0	0	0	418.329	-0.899966	-0.900305	-1.50869	-0.309171	-0.309171	11	-0.0858808	0	0.0858808	0.000000000000000E+000	0.0858808	0.0000000E+000	0.000000000000000E+000	0.00135828
2	0	0	0	0	0	0	419.329	-0.899966	-0.90042	-1.50766	-0.310678	-0.310678	11	-0.0862994	0	0.0862994	0.000000000000000E+000	0.0862994	0.0000000E+000	0.000000000000000E+000	0.00135753
2	0	0	0	0	0	0	420.329	-0.899966	-0.90021	-1.50506	-0.312183	-0.312183	11	-0.0867176	0	0.0867176	0.000000000000000E+000	0.0867176	0.0000000E+000	0.000000000000000E+000	0.00135487
2	0	0	0	0	0	0	421.329	-0.899966	-0.900439	-1.50448	-0.313689	-0.313689	11	-0.0871358	0	0.0871358	0.000000000000000E+000	0.0871358	0.0000000E+000	0.000000000000000E+000	0.00135469
2	0	0	0	0	0	0	422.329	-0.899966	-0.900267	-1.50767	-0.315195	-0.315195	11	-0.0875541	0	0.0875541	0.000000000000000E+000	0.0875541	0.0000000E+000	0.000000000000000E+000	0.00135731
2	0	0	0	0	0	0	423.329	-0.899966	-0.900343	-1.51117	-0.316704	-0.316704	11	-0.0879733	0	0.0879733	0.000000000000000E+000	0.0879733	0.0000000E+000	0.000000000000000E+000	0.00136057
2	0	0	0	0	0	0	424.329	-0.899966	-0.900305	-1.51055	-0.318215	-0.318215	11	-0.0883931	0	0.0883931	0.000000000000000E+000	0.0883931	0.0000000E+000	0.000000000000000E+000	0.00135995
2	0	0	0	0	0	0	425.329	-0.899966	-0.900343	-1.51087	-0.319726	-0.319726	11	-0.0888127	0	0.0888127	0.000000000000000E+000	0.0888127	0.0000000E+000	0.000000000000000E+000	0.0013603
2	0	0	0	0	0	0	426.329	-0.899966	-0.900477	-1.51002	-0.321236	-0.321236	11	-0.0892322	0	0.0892322	0.000000000000000E+000	0.0892322	0.0000000E+000	0.000000000000000E+000	0.00135974
2	0	0	0	0	0	0	427.329	-0.899966	-0.900362	-1.51698	-0.322747	-0.322747	11	-0.089652	0	0.089652	0.000000000000000E+000	0.089652	0.0000000E+000	0.000000000000000E+000	0.00136583
2	0	0	0	0	0	0	428.329	-0.899966	-0.900382	-1.53745	-0.324277	-0.324277	11	-0.0900768	0	0.0900768	0.000000000000000E+000	0.0900768	0.0000000E+000	0.000000000000000E+000	0.00138429
2	0	0	0	0	0	0	429.329	-0.899966	-0.900305	-1.5455	-0.325819	-0.325819	11	-0.0905052	0	0.0905052	0.000000000000000E+000	0.0905052	0.0000000E+000	0.000000000000000E+000	0.00139142
2	0	0	0	0	0	0	430.329	-0.899966	-0.900362	-1.55109	-0.327366	-0.327366	11	-0.090935	0	0.090935	0.000000000000000E+000	0.090935	0.0000000E+000	0.000000000000000E+000	0.00139654
2	0	0	0	0	0	0	431.329	-0.899966	-0.900382	-1.55055	-0.328916	-0.328916	11	-0.0913656	0	0.0913656	0.000000000000000E+000	0.0913656	0.0000000E+000	0.000000000000000E+000	0.00139608
2	0	0	0	0	0	0	432.329	-0.899966	-0.900305	-1.54973	-0.330466	-0.330466	11	-0.091796	0	0.091796	0.000000000000000E+000	0.091796	0.0000000E+000	0.000000000000000E+000	0.00139523
2	0	0	0	0	0	0	433.329	-0.899966	-0.90042	-1.55201	-0.332015	-0.332015	11	-0.0922265	0	0.0922265	0.000000000000000E+000	0.0922265	0.0000000E+000	0.000000000000000E+000	0.00139746
2	0	0	0	0	0	0	434.329	-0.899966	-0.900267	-1.55292	-0.333566	-0.333566	11	-0.0926573	0	0.0926573	0.000000000000000E+000	0.0926573	0.0000000E+000	0.000000000000000E+000	0.00139804
2	0	0	0	0	0	0	435.329	-0.899966	-0.900362	-1.55527	-0.33512	-0.33512	11	-0.093089	0	0.093089	0.000000000000000E+000	0.093089	0.0000000E+000	0.000000000000000E+000	0.00140031
2	0	0	0	0	0	0	436.329	-0.899966	-0.900343	-1.55445	-0.336674	-0.336674	11	-0.0935206	0	0.0935206	0.000000000000000E+000	0.0935206	0.0000000E+000	0.000000000000000E+000	0.00139954
2	0	0	0	0	0	0	437.329	-0.899966	-0.90042	-1.55586	-0.33823	-0.33823	11	-0.0939527	0	0.0939527	0.000000000000000E+000	0.0939527	0.0000000E+000	0.000000000000000E+000	0.00140093
2	0	0	0	0	0	0	438.329	-0.899966	-0.900362	-1.55508	-0.339784	-0.339784	11	-0.0943845	0	0.0943845	0.000000000000000E+000	0.0943845	0.0000000E+000	0.000000000000000E+000	0.00140014
2	0	0	0	0	0	0	439.329	-0.899966	-0.900324	-1.55474	-0.341339	-0.341339	11	-0.0948163	0	0.0948163	0.000000000000000E+000	0.0948163	0.0000000E+000	0.000000000000000E+000	0.00139977
2	0	0	0	0	0	0	440.329	-0.899966	-0.900324	-1.55244	-0.342891	-0.342891	11	-0.0952476	0	0.0952476	0.000000000000000E+000	0.0952476	0.0000000E+000	0.000000000000000E+000	0.0013977
2	0	0	0	0	0	0	441.329	-0.899966	-0.900362	-1.55176	-0.344444	-0.344444	11	-0.0956789	0	0.0956789	0.000000000000000E+000	0.0956789	0.0000000E+000	0.000000000000000E+000	0.00139715
2	0	0	0	0	0	0	442.329	-0.899966	-0.900229	-1.55063	-0.345996	-0.345996	11	-0.09611	0	0.09611	0.000000000000000E+000	0.09611	0.0000000E+000	0.000000000000000E+000	0.00139592
2	0	0	0	0	0	0	443.329	-0.899966	-0.900382	-1.55151	-0.347547	-0.347547	11	-0.0965408	0	0.0965408	0.000000000000000E+000	0.0965408	0.0000000E+000	0.000000000000000E+000	0.00139695
2	0	0	0	0	0	0	444.329	-0.899966	-0.900362	-1.55322	-0.3491	-0.3491	11	-0.0969723	0	0.0969723	0.000000000000000E+000	0.0969723	0.0000000E+000	0.000000000000000E+000	0.00139846
2	0	0	0	0	0	0	445.329	-0.899966	-0.900401	-1.55199	-0.350654	-0.350654	11	-0.0974038	0	0.0974038	0.000000000000000E+000	0.0974038	0.0000000E+000	0.000000000000000E+000	0.00139742
2	0	0	0	0	0	0	446.329	-0.899966	-0.900343	-1.57963	-0.352212	-0.352212	11	-0.0978367	0	0.0978367	0.000000000000000E+000	0.0978367	0.0000000E+000	0.000000000000000E+000	0.00142221
2	0	0	0	0	0	0	447.329	-0.899966	-0.900324	-1.6042	-0.35381	-0.35381	11	-0.0982806	0	0.0982806	0.000000000000000E+000	0.0982806	0.0000000E+000	0.000000000000000E+000	0.0014443
2	0	0	0	0	0	0	448.329	-0.899966	-0.900401	-1.61138	-0.355419	-0.355419	11	-0.0987274	0	0.0987274	0.000000000000000E+000	0.0987274	0.0000000E+000	0.000000000000000E+000	0.00145088
2	0	0	0	0	0	0	449.329	-0.899966	-0.90042	-1.61757	-0.357034	-0.357034	11	-0.0991762	0	0.0991762	0.000000000000000E+000	0.0991762	0.0000000E+000	0.000000000000000E+000	0.00145649
2	0	0	0	0	0	0	450.329	-0.899966	-0.900305	-1.62022	-0.358653	-0.358653	11	-0.0996259	0	0.0996259	0.000000000000000E+000	0.0996259	0.0000000E+000	0.000000000000000E+000	0.00145869
2	0	0	0	0	0	0	451.329	-0.899966	-0.900343	-1.61944	-0.360273	-0.360273	11	-0.100076	0	0.100076	0.000000000000000E+000	0.100076	0.0000000E+000	0.000000000000000E+000	0.00145805
2	0	0	0	0	0	0	452.329	-0.899966	-0.90042	-1.62068	-0.361892	-0.361892	11	-0.100526	0	0.100526	0.000000000000000E+000	0.100526	0.0000000E+000	0.000000000000000E+000	0.00145929
2	0	0	0	0	0	0	453.329	-0.899966	-0.900172	-1.61935	-0.363512	-0.363512	11	-0.100975	0	0.100975	0.000000000000000E+000	0.100975	0.0000000E+000	0.000000000000000E+000	0.00145769
2	0	0	0	0	0	0	454.329	-0.899966	-0.900362	-1.62126	-0.365133	-0.365133	11	-0.101426	0	0.101426	0.000000000000000E+000	0.101426	0.0000000E+000	0.000000000000000E+000	0.00145973
2	0	0	0	0	0	0	455.329	-0.899966	-0.900439	-1.62121	-0.366753	-0.366753	11	-0.101876	0	0.101876	0.000000000000000E+000	0.101876	0.0000000E+000	0.000000000000000E+000	0.0014598
2	0	0	0	0	0	0	456.329	-0.899966	-0.900382	-1.62029	-0.368374	-0.368374	11	-0.102326	0	0.102326	0.000000000000000E+000	0.102326	0.0000000E+000	0.000000000000000E+000	0.00145888
2	0	0	0	0	0	0	457.329	-0.899966	-0.900286	-1.62097	-0.369995	-0.369995	11	-0.102776	0	0.102776	0.000000000000000E+000	0.102776	0.0000000E+000	0.000000000000000E+000	0.00145933
2	0	0	0	0	0	0	458.329	-0.899966	-0.900362	-1.61915	-0.371615	-0.371615	11	-0.103226	0	0.103226	0.000000000000000E+000	0.103226	0.0000000E+000	0.000000000000000E+000	0.00145782
2	0	0	0	0	0	0	459.329	-0.899966	-0.900343	-1.61743	-0.373233	-0.373233	11	-0.103676	0	0.103676	0.000000000000000E+000	0.103676	0.0000000E+000	0.000000000000000E+000	0.00145625
2	0	0	0	0	0	0	460.329	-0.899966	-0.900191	-1.62003	-0.374855	-0.374855	11	-0.104126	0	0.104126	0.000000000000000E+000	0.104126	0.0000000E+000	0.000000000000000E+000	0.00145834
2	0	0	0	0	0	0	461.329	-0.899966	-0.900458	-1.62009	-0.376475	-0.376475	11	-0.104576	0	0.104576	0.000000000000000E+000	0.104576	0.0000000E+000	0.000000000000000E+000	0.00145882
2	0	0	0	0	0	0	462.329	-0.899966	-0.90021	-1.62296	-0.378095	-0.378095	11	-0.105026	0	0.105026	0.000000000000000E+000	0.105026	0.0000000E+000	0.000000000000000E+000	0.00146101
2	0	0	0	0	0	0	463.329	-0.899966	-0.900401	-1.62272	-0.379718	-0.379718	11	-0.105477	0	0.105477	0.000000000000000E+000	0.105477	0.0000000E+000	0.000000000000000E+000	0.0014611
2	0	0	0	0	0	0	464.329	-0.899966	-0.900439	-1.62048	-0.381339	-0.381339	11	-0.105928	0	0.105928	0.000000000000000E+000	0.105928	0.0000000E+000	0.000000000000000E+000	0.00145914
2	0	0	0	0	0	0	465.329	-0.899966	-0.900324	-1.61631	-0.382957	-0.382957	11	-0.106377	0	0.106377	0.000000000000000E+000	0.106377	0.0000000E+000	0.000000000000000E+000	0.0014552
2	0	0	0	0	0	0	466.329	-0.899966	-0.900401	-1.62035	-0.384575	-0.384575	11	-0.106826	0	0.106826	0.000000000000000E+000	0.106826	0.0000000E+000	0.000000000000000E+000	0.00145897
2	0	0	0	0	0	0	467.329	-0.899966	-0.900382	-1.62702	-0.3862	-0.3862	11	-0.107278	0	0.107278	0.000000000000000E+000	0.107278	0.0000000E+000	0.000000000000000E+000	0.00146494
2	0	0	0	0	0	0	467.833	-0.899966	-0.900458	-1.62415	-0.387018	-0.387018	11	-0.107505	0	0.107505	0.000000000000000E+000	0.107505	0.0000000E+000	0.000000000000000E+000	0.00146248