File: ZnPVAECH_08 RDE 3 ECH 1600 rpm K-L.mpt
EC-Lab ASCII FILE
Nb header lines : 81

Chronoamperometry / Chronocoulometry

Run on channel : 5 (SN 6729)
User :
CE vs. WE compliance from -10 V to 10 V
Electrode connection : standard
Ewe ctrl range : min = -2.50 V, max = 2.50 V
Safety Limits :
	Do not start on E overload
Acquisition started on : 03/10/2022 15:06:41.638
Technique started on : 03/10/2022 15:06:41.738
Loaded Setting File :  NONE
Saved on :
	File : 03-10-22-GC ECH K-L 100 to 1600 rpm at -0_8V vs RHE RDE3_C05.mpr
	Directory : G:\Mindy\Koutecky Levich\Zn PVA\ECH\03-10-22\
	Host : 35.9.136.176
Device : VSP (SN 0012)
Address : 35.9.137.65
EC-Lab for windows v11.36 (software)
Internet server v11.36 (firmware)
Command interpretor v11.36 (firmware)
Electrode material : Au/Pd
Initial state :
Electrolyte : NaCl (0.2M)
Comments : Fe(CN)63-/Fe(CN)64- 5.10-3 M
Reference electrode : SCE Saturated Calomel Electrode (0.241 V)
Electrode surface area : 0.196 cm²
Characteristic mass : 0.001 g
Equivalent Weight : 0.000 g/eq.
Density : 0.000 g/cm3
Record Analogic IN 1
Cycle Definition : Charge/Discharge alternance
External device configuration :
   device type : RDE
   device name : BluRev RDE
   Analog OUT :
      mode : E/V
      unit : speed/rpm
      max : 10000.000 at 10.000 V
      min : 0.000 at 0.000 V
      current : 1600.000
   Analog IN 1 :
      unit : speed/rpm
      max : 10000.000 at 10.000 V
      min : 0.000 at 0.000 V
Ei (V)              -0.780
vs.                 Ref
ti (h:m:s)          0:30:0.0000
Imax                pass
unit Imax           mA
Imin                pass
unit Imin           mA
dQM                 0.000
unit dQM            mA.h
record              <I>
dI                  5.000
unit dI             µA
dQ                  0.000
unit dQ             mA.h
dt (s)              0.1000
dta (s)             0.1000
E range min (V)     -2.500
E range max (V)     2.500
I Range             Auto
I Range min         Unset
I Range max         Unset
I Range init        Unset
Bandwidth           5
goto Ns'            0
nc cycles           0

Modify on : 03/10/2022 15:06
Ei (V)              -0.760

Modify on : 03/10/2022 15:07
Ei (V)              -0.770

mode	ox/red	error	control changes	Ns changes	counter inc.	Ns	time/s	control/V	Ewe/V	<I>/mA	dQ/C	(Q-Qo)/C	I Range	Q charge/discharge/mA.h	half cycle	Analog IN 1/V	Analog OUT/V	Q discharge/mA.h	Q charge/mA.h	Capacity/mA.h	Efficiency/%	cycle number	P/W
2	0	0	0	0	0	0	0.1	-0.780006	-0.780546	-4.08206	-0.000116722	-0.000116722	11	-3.24227e-05	0	-0.216629	1600	3.24227e-05	0.000000000000000E+000	3.24227e-05	0.0000000E+000	0.000000000000000E+000	0.00318623
2	0	0	0	0	0	0	0.9	-0.780006	-0.780375	-3.89943	-0.00325523	-0.00325523	11	-0.00090423	0	-0.254813	1600	0.00090423	0.000000000000000E+000	0.00090423	0.0000000E+000	0.000000000000000E+000	0.00304301
2	0	0	0	0	0	0	1.7	-0.780006	-0.780527	-3.88633	-0.00636803	-0.00636803	11	-0.0017689	0	-0.178445	1600	0.0017689	0.000000000000000E+000	0.0017689	0.0000000E+000	0.000000000000000E+000	0.00303338
2	0	0	0	0	0	0	2.5	-0.780006	-0.780394	-3.87409	-0.00947164	-0.00947164	11	-0.00263101	0	-0.216629	1600	0.00263101	0.000000000000000E+000	0.00263101	0.0000000E+000	0.000000000000000E+000	0.00302332
2	0	0	0	0	0	0	3.3	-0.780006	-0.780336	-3.86614	-0.0125676	-0.0125676	11	-0.003491	0	-0.292998	1600	0.003491	0.000000000000000E+000	0.003491	0.0000000E+000	0.000000000000000E+000	0.00301689
2	0	0	0	0	0	0	4.1	-0.780006	-0.780604	-3.85688	-0.0156567	-0.0156567	11	-0.00434908	0	-0.31209	1600	0.00434908	0.000000000000000E+000	0.00434908	0.0000000E+000	0.000000000000000E+000	0.00301069
2	0	0	0	0	0	0	4.9	-0.780006	-0.780432	-3.85322	-0.0187417	-0.0187417	11	-0.00520602	0	-0.254813	1600	0.00520602	0.000000000000000E+000	0.00520602	0.0000000E+000	0.000000000000000E+000	0.00300717
2	0	0	0	0	0	0	5.7	-0.780006	-0.780279	-3.85115	-0.0218218	-0.0218218	11	-0.00606161	0	-0.254813	1600	0.00606161	0.000000000000000E+000	0.00606161	0.0000000E+000	0.000000000000000E+000	0.00300497
2	0	0	0	0	0	0	6.5	-0.780006	-0.780356	-3.84455	-0.024899	-0.024899	11	-0.00691638	0	-0.273906	1600	0.00691638	0.000000000000000E+000	0.00691638	0.0000000E+000	0.000000000000000E+000	0.00300012
2	0	0	0	0	0	0	7.3	-0.780006	-0.780489	-3.84122	-0.0279737	-0.0279737	11	-0.00777046	0	-0.235721	1600	0.00777046	0.000000000000000E+000	0.00777046	0.0000000E+000	0.000000000000000E+000	0.00299803
2	0	0	0	0	0	0	8.1	-0.780006	-0.78047	-3.84018	-0.0310445	-0.0310445	11	-0.00862348	0	-0.254813	1600	0.00862348	0.000000000000000E+000	0.00862348	0.0000000E+000	0.000000000000000E+000	0.00299715
2	0	0	0	0	0	0	8.9	-0.780006	-0.780298	-3.83381	-0.0341132	-0.0341132	11	-0.0094759	0	-0.273906	1600	0.0094759	0.000000000000000E+000	0.0094759	0.0000000E+000	0.000000000000000E+000	0.00299152
2	0	0	0	0	0	0	9.7	-0.780006	-0.780413	-3.82929	-0.03718	-0.03718	11	-0.0103278	0	-0.14026	1600	0.0103278	0.000000000000000E+000	0.0103278	0.0000000E+000	0.000000000000000E+000	0.00298842
2	0	0	0	0	0	0	10.5	-0.780006	-0.780298	-3.83004	-0.0402434	-0.0402434	11	-0.0111787	0	-0.31209	1600	0.0111787	0.000000000000000E+000	0.0111787	0.0000000E+000	0.000000000000000E+000	0.00298857
2	0	0	0	0	0	0	11.3	-0.780006	-0.780527	-3.82086	-0.0433038	-0.0433038	11	-0.0120288	0	-0.216629	1600	0.0120288	0.000000000000000E+000	0.0120288	0.0000000E+000	0.000000000000000E+000	0.00298229
2	0	0	0	0	0	0	12.1	-0.780006	-0.780375	-3.82131	-0.0463618	-0.0463618	11	-0.0128783	0	-0.235721	1600	0.0128783	0.000000000000000E+000	0.0128783	0.0000000E+000	0.000000000000000E+000	0.00298205
2	0	0	0	0	0	0	12.9	-0.780006	-0.78047	-3.81973	-0.049417	-0.049417	11	-0.0137269	0	-0.235721	1600	0.0137269	0.000000000000000E+000	0.0137269	0.0000000E+000	0.000000000000000E+000	0.00298118
2	0	0	0	0	0	0	13.7	-0.780006	-0.780489	-3.81127	-0.052469	-0.052469	11	-0.0145747	0	-0.273906	1600	0.0145747	0.000000000000000E+000	0.0145747	0.0000000E+000	0.000000000000000E+000	0.00297466
2	0	0	0	0	0	0	14.5	-0.780006	-0.780489	-3.811	-0.0555187	-0.0555187	11	-0.0154219	0	-0.178445	1600	0.0154219	0.000000000000000E+000	0.0154219	0.0000000E+000	0.000000000000000E+000	0.00297445
2	0	0	0	0	0	0	15.3	-0.780006	-0.780317	-3.80923	-0.0585652	-0.0585652	11	-0.0162681	0	-0.197537	1600	0.0162681	0.000000000000000E+000	0.0162681	0.0000000E+000	0.000000000000000E+000	0.00297241
2	0	0	1	0	0	0	16.1	-0.759997	-0.760367	-3.22823	-0.0614325	-0.0614325	11	-0.0170646	0	-0.216629	1600	0.0170646	0.000000000000000E+000	0.0170646	0.0000000E+000	0.000000000000000E+000	0.00245464
2	0	0	1	0	0	0	16.9	-0.759997	-0.760405	-3.22742	-0.0640154	-0.0640154	11	-0.0177821	0	-0.121168	1600	0.0177821	0.000000000000000E+000	0.0177821	0.0000000E+000	0.000000000000000E+000	0.00245415
2	0	0	1	0	0	0	17.7	-0.759997	-0.760348	-3.22514	-0.0665964	-0.0665964	11	-0.018499	0	-0.235721	1600	0.018499	0.000000000000000E+000	0.018499	0.0000000E+000	0.000000000000000E+000	0.00245223
2	0	0	1	0	0	0	18.5	-0.759997	-0.760291	-3.22196	-0.0691753	-0.0691753	11	-0.0192154	0	-0.216629	1600	0.0192154	0.000000000000000E+000	0.0192154	0.0000000E+000	0.000000000000000E+000	0.00244962
2	0	0	1	0	0	0	19.3	-0.759997	-0.760348	-3.2225	-0.0717521	-0.0717521	11	-0.0199312	0	-0.197537	1600	0.0199312	0.000000000000000E+000	0.0199312	0.0000000E+000	0.000000000000000E+000	0.00245022
2	0	0	1	0	0	0	20.1	-0.759997	-0.760233	-3.21573	-0.0743258	-0.0743258	11	-0.0206461	0	-0.197537	1600	0.0206461	0.000000000000000E+000	0.0206461	0.0000000E+000	0.000000000000000E+000	0.0024447
2	0	0	1	0	0	0	20.9	-0.759997	-0.76031	-3.21141	-0.0768968	-0.0768968	11	-0.0213602	0	-0.178445	1600	0.0213602	0.000000000000000E+000	0.0213602	0.0000000E+000	0.000000000000000E+000	0.00244167
2	0	0	1	0	0	0	21.7	-0.759997	-0.760329	-3.20825	-0.0794642	-0.0794642	11	-0.0220734	0	-0.197537	1600	0.0220734	0.000000000000000E+000	0.0220734	0.0000000E+000	0.000000000000000E+000	0.00243933
2	0	0	1	0	0	0	22.5	-0.759997	-0.760272	-3.20294	-0.082028	-0.082028	11	-0.0227855	0	-0.14026	1600	0.0227855	0.000000000000000E+000	0.0227855	0.0000000E+000	0.000000000000000E+000	0.0024351
2	0	0	1	0	0	0	23.3	-0.759997	-0.760367	-3.20083	-0.0845899	-0.0845899	11	-0.0234972	0	-0.216629	1600	0.0234972	0.000000000000000E+000	0.0234972	0.0000000E+000	0.000000000000000E+000	0.0024338
2	0	0	1	0	0	0	24.1	-0.759997	-0.760291	-3.19841	-0.087149	-0.087149	11	-0.0242081	0	-0.197537	1600	0.0242081	0.000000000000000E+000	0.0242081	0.0000000E+000	0.000000000000000E+000	0.00243172
2	0	0	1	0	0	0	24.9	-0.759997	-0.760329	-3.19576	-0.0897065	-0.0897065	11	-0.0249185	0	-0.0829839	1600	0.0249185	0.000000000000000E+000	0.0249185	0.0000000E+000	0.000000000000000E+000	0.00242983
2	0	0	1	0	0	0	25.7	-0.759997	-0.760291	-3.19243	-0.0922618	-0.0922618	11	-0.0256283	0	-0.216629	1600	0.0256283	0.000000000000000E+000	0.0256283	0.0000000E+000	0.000000000000000E+000	0.00242718
2	0	0	0	0	0	0	26.5	-0.770002	-0.770352	-3.4738	-0.0949449	-0.0949449	11	-0.0263736	0	-0.216629	1600	0.0263736	0.000000000000000E+000	0.0263736	0.0000000E+000	0.000000000000000E+000	0.00267605
2	0	0	0	0	0	0	27.3	-0.770002	-0.770333	-3.46591	-0.0977195	-0.0977195	11	-0.0271443	0	-0.178445	1600	0.0271443	0.000000000000000E+000	0.0271443	0.0000000E+000	0.000000000000000E+000	0.0026699
2	0	0	0	0	0	0	28.1	-0.770002	-0.770371	-3.46637	-0.100494	-0.100494	11	-0.027915	0	-0.197537	1600	0.027915	0.000000000000000E+000	0.027915	0.0000000E+000	0.000000000000000E+000	0.00267039
2	0	0	0	0	0	0	28.9	-0.770002	-0.770428	-3.46414	-0.103265	-0.103265	11	-0.0286846	0	-0.292998	1600	0.0286846	0.000000000000000E+000	0.0286846	0.0000000E+000	0.000000000000000E+000	0.00266887
2	0	0	0	0	0	0	29.7	-0.770002	-0.770409	-3.4576	-0.106033	-0.106033	11	-0.0294536	0	-0.254813	1600	0.0294536	0.000000000000000E+000	0.0294536	0.0000000E+000	0.000000000000000E+000	0.00266376
2	0	0	0	0	0	0	30.5	-0.770002	-0.770294	-3.45594	-0.1088	-0.1088	11	-0.0302221	0	-0.292998	1600	0.0302221	0.000000000000000E+000	0.0302221	0.0000000E+000	0.000000000000000E+000	0.00266209
2	0	0	0	0	0	0	31.3	-0.770002	-0.770256	-3.45585	-0.111564	-0.111564	11	-0.0309899	0	-0.292998	1600	0.0309899	0.000000000000000E+000	0.0309899	0.0000000E+000	0.000000000000000E+000	0.00266189
2	0	0	0	0	0	0	32.1	-0.770002	-0.770409	-3.44787	-0.114325	-0.114325	11	-0.031757	0	-0.178445	1600	0.031757	0.000000000000000E+000	0.031757	0.0000000E+000	0.000000000000000E+000	0.00265627
2	0	0	0	0	0	0	32.9	-0.770002	-0.770524	-3.44819	-0.117085	-0.117085	11	-0.0325235	0	-0.254813	1600	0.0325235	0.000000000000000E+000	0.0325235	0.0000000E+000	0.000000000000000E+000	0.00265691
2	0	0	0	0	0	0	33.7	-0.770002	-0.770314	-3.44704	-0.119842	-0.119842	11	-0.0332895	0	-0.197537	1600	0.0332895	0.000000000000000E+000	0.0332895	0.0000000E+000	0.000000000000000E+000	0.0026553
2	0	0	0	0	0	0	34.5	-0.770002	-0.770314	-3.44105	-0.122597	-0.122597	11	-0.0340548	0	-0.121168	1600	0.0340548	0.000000000000000E+000	0.0340548	0.0000000E+000	0.000000000000000E+000	0.00265069
2	0	0	0	0	0	0	35.3	-0.770002	-0.770466	-3.44064	-0.12535	-0.12535	11	-0.0348195	0	-0.197537	1600	0.0348195	0.000000000000000E+000	0.0348195	0.0000000E+000	0.000000000000000E+000	0.0026509
2	0	0	0	0	0	0	36.1	-0.770002	-0.770294	-3.43834	-0.128101	-0.128101	11	-0.0355837	0	-0.159353	1600	0.0355837	0.000000000000000E+000	0.0355837	0.0000000E+000	0.000000000000000E+000	0.00264854
2	0	0	0	0	0	0	36.9	-0.770002	-0.77039	-3.43287	-0.13085	-0.13085	11	-0.0363472	0	-0.102076	1600	0.0363472	0.000000000000000E+000	0.0363472	0.0000000E+000	0.000000000000000E+000	0.00264465
2	0	0	0	0	0	0	37.7	-0.770002	-0.77039	-3.43331	-0.133597	-0.133597	11	-0.0371102	0	-0.292998	1600	0.0371102	0.000000000000000E+000	0.0371102	0.0000000E+000	0.000000000000000E+000	0.00264498
2	0	0	0	0	0	0	38.5	-0.770002	-0.770256	-3.42879	-0.136342	-0.136342	11	-0.0378727	0	-0.235721	1600	0.0378727	0.000000000000000E+000	0.0378727	0.0000000E+000	0.000000000000000E+000	0.00264105
2	0	0	0	0	0	0	39.3	-0.770002	-0.770447	-3.42391	-0.139084	-0.139084	11	-0.0386343	0	-0.121168	1600	0.0386343	0.000000000000000E+000	0.0386343	0.0000000E+000	0.000000000000000E+000	0.00263794
2	0	0	0	0	0	0	40.1	-0.770002	-0.770428	-3.42579	-0.141823	-0.141823	11	-0.0393953	0	-0.216629	1600	0.0393953	0.000000000000000E+000	0.0393953	0.0000000E+000	0.000000000000000E+000	0.00263933
2	0	0	0	0	0	0	40.9	-0.770002	-0.770466	-3.35573	-0.144553	-0.144553	11	-0.0401536	0	-0.197537	1600	0.0401536	0.000000000000000E+000	0.0401536	0.0000000E+000	0.000000000000000E+000	0.00258548
2	0	0	0	0	0	0	41.7	-0.770002	-0.770256	-3.19875	-0.147107	-0.147107	11	-0.0408631	0	-0.121168	1600	0.0408631	0.000000000000000E+000	0.0408631	0.0000000E+000	0.000000000000000E+000	0.00246386
2	0	0	0	0	0	0	42.5	-0.770002	-0.770237	-3.24502	-0.149697	-0.149697	11	-0.0415824	0	-0.216629	1600	0.0415824	0.000000000000000E+000	0.0415824	0.0000000E+000	0.000000000000000E+000	0.00249944
2	0	0	0	0	0	0	43.3	-0.770002	-0.770218	-3.2454	-0.152292	-0.152292	11	-0.0423035	0	-0.197537	1600	0.0423035	0.000000000000000E+000	0.0423035	0.0000000E+000	0.000000000000000E+000	0.00249966
2	0	0	0	0	0	0	44.1	-0.770002	-0.770447	-3.23994	-0.154887	-0.154887	11	-0.0430241	0	-0.235721	1600	0.0430241	0.000000000000000E+000	0.0430241	0.0000000E+000	0.000000000000000E+000	0.0024962
2	0	0	0	0	0	0	44.9	-0.770002	-0.770371	-3.23895	-0.15748	-0.15748	11	-0.0437444	0	-0.178445	1600	0.0437444	0.000000000000000E+000	0.0437444	0.0000000E+000	0.000000000000000E+000	0.0024952
2	0	0	0	0	0	0	45.7	-0.770002	-0.770466	-3.23543	-0.160071	-0.160071	11	-0.0444642	0	-0.159353	1600	0.0444642	0.000000000000000E+000	0.0444642	0.0000000E+000	0.000000000000000E+000	0.00249279
2	0	0	0	0	0	0	46.5	-0.770002	-0.770294	-3.23179	-0.162661	-0.162661	11	-0.0451835	0	-0.254813	1600	0.0451835	0.000000000000000E+000	0.0451835	0.0000000E+000	0.000000000000000E+000	0.00248943
2	0	0	0	0	0	0	47.3	-0.770002	-0.77039	-3.23151	-0.165249	-0.165249	11	-0.0459024	0	-0.121168	1600	0.0459024	0.000000000000000E+000	0.0459024	0.0000000E+000	0.000000000000000E+000	0.00248952
2	0	0	0	0	0	0	48.1	-0.770002	-0.770447	-3.23005	-0.167835	-0.167835	11	-0.0466208	0	-0.235721	1600	0.0466208	0.000000000000000E+000	0.0466208	0.0000000E+000	0.000000000000000E+000	0.00248858
2	0	0	0	0	0	0	48.9	-0.770002	-0.770294	-3.22662	-0.170419	-0.170419	11	-0.0473387	0	-0.273906	1600	0.0473387	0.000000000000000E+000	0.0473387	0.0000000E+000	0.000000000000000E+000	0.00248545
2	0	0	0	0	0	0	49.7	-0.770002	-0.770352	-3.2256	-0.173002	-0.173002	11	-0.0480561	0	-0.178445	1600	0.0480561	0.000000000000000E+000	0.0480561	0.0000000E+000	0.000000000000000E+000	0.00248485
2	0	0	0	0	0	0	50.5	-0.770002	-0.770256	-3.22307	-0.175583	-0.175583	11	-0.0487731	0	-0.178445	1600	0.0487731	0.000000000000000E+000	0.0487731	0.0000000E+000	0.000000000000000E+000	0.00248259
2	0	0	0	0	0	0	51.3	-0.770002	-0.77039	-3.21978	-0.178163	-0.178163	11	-0.0494896	0	-0.235721	1600	0.0494896	0.000000000000000E+000	0.0494896	0.0000000E+000	0.000000000000000E+000	0.00248049
2	0	0	0	0	0	0	52.1	-0.770002	-0.770294	-3.2212	-0.180739	-0.180739	11	-0.0502054	0	-0.121168	1600	0.0502054	0.000000000000000E+000	0.0502054	0.0000000E+000	0.000000000000000E+000	0.00248127
2	0	0	0	0	0	0	52.9	-0.770002	-0.770409	-3.22051	-0.183316	-0.183316	11	-0.0509212	0	-0.331182	1600	0.0509212	0.000000000000000E+000	0.0509212	0.0000000E+000	0.000000000000000E+000	0.00248111
2	0	0	0	0	0	0	53.7	-0.770002	-0.770352	-3.21908	-0.185891	-0.185891	11	-0.0516363	0	-0.159353	1600	0.0516363	0.000000000000000E+000	0.0516363	0.0000000E+000	0.000000000000000E+000	0.00247982
2	0	0	0	0	0	0	54.5	-0.770002	-0.770409	-3.15633	-0.188448	-0.188448	11	-0.0523468	0	-0.159353	1600	0.0523468	0.000000000000000E+000	0.0523468	0.0000000E+000	0.000000000000000E+000	0.00243166
2	0	0	0	0	0	0	55.3	-0.770002	-0.770352	-3.07513	-0.190931	-0.190931	11	-0.0530364	0	-0.235721	1600	0.0530364	0.000000000000000E+000	0.0530364	0.0000000E+000	0.000000000000000E+000	0.00236893
2	0	0	0	0	0	0	56.1	-0.770002	-0.770294	-3.0791	-0.193393	-0.193393	11	-0.0537203	0	-0.235721	1600	0.0537203	0.000000000000000E+000	0.0537203	0.0000000E+000	0.000000000000000E+000	0.00237182
2	0	0	0	0	0	0	56.9	-0.770002	-0.770294	-3.07965	-0.195856	-0.195856	11	-0.0544046	0	-0.178445	1600	0.0544046	0.000000000000000E+000	0.0544046	0.0000000E+000	0.000000000000000E+000	0.00237224
2	0	0	0	0	0	0	57.7	-0.770002	-0.770256	-3.07865	-0.19832	-0.19832	11	-0.055089	0	-0.14026	1600	0.055089	0.000000000000000E+000	0.055089	0.0000000E+000	0.000000000000000E+000	0.00237135
2	0	0	0	0	0	0	58.5	-0.770002	-0.770447	-3.07399	-0.200781	-0.200781	11	-0.0557725	0	-0.235721	1600	0.0557725	0.000000000000000E+000	0.0557725	0.0000000E+000	0.000000000000000E+000	0.00236835
2	0	0	0	0	0	0	59.3	-0.770002	-0.770352	-3.07318	-0.203239	-0.203239	11	-0.0564554	0	-0.197537	1600	0.0564554	0.000000000000000E+000	0.0564554	0.0000000E+000	0.000000000000000E+000	0.00236743
2	0	0	0	0	0	0	60.1	-0.770002	-0.770447	-3.07096	-0.205697	-0.205697	11	-0.0571382	0	-0.254813	1600	0.0571382	0.000000000000000E+000	0.0571382	0.0000000E+000	0.000000000000000E+000	0.00236601
2	0	0	0	0	0	0	60.9	-0.770002	-0.770485	-3.06695	-0.208153	-0.208153	11	-0.0578202	0	-0.178445	1600	0.0578202	0.000000000000000E+000	0.0578202	0.0000000E+000	0.000000000000000E+000	0.00236304
2	0	0	0	0	0	0	61.7	-0.770002	-0.770352	-3.06898	-0.210607	-0.210607	11	-0.0585019	0	-0.254813	1600	0.0585019	0.000000000000000E+000	0.0585019	0.0000000E+000	0.000000000000000E+000	0.00236419
2	0	0	0	0	0	0	62.5	-0.770002	-0.770428	-3.06572	-0.213061	-0.213061	11	-0.0591835	0	-0.14026	1600	0.0591835	0.000000000000000E+000	0.0591835	0.0000000E+000	0.000000000000000E+000	0.00236192
2	0	0	0	0	0	0	63.3	-0.770002	-0.770524	-3.06128	-0.215512	-0.215512	11	-0.0598644	0	-0.273906	1600	0.0598644	0.000000000000000E+000	0.0598644	0.0000000E+000	0.000000000000000E+000	0.00235878
2	0	0	0	0	0	0	64.1	-0.770002	-0.770447	-3.01161	-0.21795	-0.21795	11	-0.0605415	0	-0.197537	1600	0.0605415	0.000000000000000E+000	0.0605415	0.0000000E+000	0.000000000000000E+000	0.00232028
2	0	0	0	0	0	0	64.9	-0.770002	-0.770352	-2.90189	-0.2203	-0.2203	11	-0.0611945	0	-0.254813	1600	0.0611945	0.000000000000000E+000	0.0611945	0.0000000E+000	0.000000000000000E+000	0.00223548
2	0	0	0	0	0	0	65.7	-0.770002	-0.770371	-2.885	-0.222614	-0.222614	11	-0.0618371	0	-0.178445	1600	0.0618371	0.000000000000000E+000	0.0618371	0.0000000E+000	0.000000000000000E+000	0.00222252
2	0	0	0	0	0	0	66.5	-0.770002	-0.770237	-2.87309	-0.224915	-0.224915	11	-0.0624765	0	-0.159353	1600	0.0624765	0.000000000000000E+000	0.0624765	0.0000000E+000	0.000000000000000E+000	0.00221296
2	0	0	0	0	0	0	67.3	-0.770002	-0.770275	-2.86385	-0.227209	-0.227209	11	-0.0631137	0	-0.178445	1600	0.0631137	0.000000000000000E+000	0.0631137	0.0000000E+000	0.000000000000000E+000	0.00220595
2	0	0	0	0	0	0	68.1	-0.770002	-0.770447	-2.86539	-0.229501	-0.229501	11	-0.0637503	0	-0.235721	1600	0.0637503	0.000000000000000E+000	0.0637503	0.0000000E+000	0.000000000000000E+000	0.00220763
2	0	0	0	0	0	0	68.9	-0.770002	-0.770447	-2.86296	-0.231791	-0.231791	11	-0.0643864	0	-0.178445	1600	0.0643864	0.000000000000000E+000	0.0643864	0.0000000E+000	0.000000000000000E+000	0.00220576
2	0	0	0	0	0	0	69.7	-0.770002	-0.770409	-2.86084	-0.234082	-0.234082	11	-0.0650227	0	-0.254813	1600	0.0650227	0.000000000000000E+000	0.0650227	0.0000000E+000	0.000000000000000E+000	0.00220401
2	0	0	0	0	0	0	70.5	-0.770002	-0.770333	-2.86384	-0.236371	-0.236371	11	-0.0656587	0	-0.159353	1600	0.0656587	0.000000000000000E+000	0.0656587	0.0000000E+000	0.000000000000000E+000	0.00220611
2	0	0	0	0	0	0	71.3	-0.770002	-0.770485	-2.85843	-0.238659	-0.238659	11	-0.0662941	0	-0.292998	1600	0.0662941	0.000000000000000E+000	0.0662941	0.0000000E+000	0.000000000000000E+000	0.00220238
2	0	0	0	0	0	0	72.1	-0.770002	-0.770371	-2.85353	-0.240945	-0.240945	11	-0.0669292	0	-0.159353	1600	0.0669292	0.000000000000000E+000	0.0669292	0.0000000E+000	0.000000000000000E+000	0.00219828
2	0	0	0	0	0	0	72.9	-0.770002	-0.770543	-2.85735	-0.24323	-0.24323	11	-0.067564	0	-0.121168	1600	0.067564	0.000000000000000E+000	0.067564	0.0000000E+000	0.000000000000000E+000	0.00220171
2	0	0	0	0	0	0	73.7	-0.770002	-0.770314	-2.85571	-0.245514	-0.245514	11	-0.0681982	0	-0.254813	1600	0.0681982	0.000000000000000E+000	0.0681982	0.0000000E+000	0.000000000000000E+000	0.00219979
2	0	0	0	0	0	0	74.5	-0.770002	-0.770352	-2.8509	-0.247796	-0.247796	11	-0.0688322	0	-0.121168	1600	0.0688322	0.000000000000000E+000	0.0688322	0.0000000E+000	0.000000000000000E+000	0.00219619
2	0	0	0	0	0	0	75.3	-0.770002	-0.770256	-2.85128	-0.250078	-0.250078	11	-0.069466	0	-0.216629	1600	0.069466	0.000000000000000E+000	0.069466	0.0000000E+000	0.000000000000000E+000	0.00219622
2	0	0	0	0	0	0	76.1	-0.770002	-0.770333	-2.85226	-0.252357	-0.252357	11	-0.0700993	0	-0.235721	1600	0.0700993	0.000000000000000E+000	0.0700993	0.0000000E+000	0.000000000000000E+000	0.00219719
2	0	0	0	0	0	0	76.9	-0.770002	-0.770333	-2.84476	-0.254636	-0.254636	11	-0.0707321	0	-0.31209	1600	0.0707321	0.000000000000000E+000	0.0707321	0.0000000E+000	0.000000000000000E+000	0.00219141
2	0	0	0	0	0	0	77.7	-0.770002	-0.770371	-2.84499	-0.256913	-0.256913	11	-0.0713646	0	-0.197537	1600	0.0713646	0.000000000000000E+000	0.0713646	0.0000000E+000	0.000000000000000E+000	0.0021917
2	0	0	0	0	0	0	78.5	-0.770002	-0.770294	-2.84355	-0.259188	-0.259188	11	-0.0719966	0	-0.254813	1600	0.0719966	0.000000000000000E+000	0.0719966	0.0000000E+000	0.000000000000000E+000	0.00219037
2	0	0	0	0	0	0	79.3	-0.770002	-0.770352	-2.83937	-0.261462	-0.261462	11	-0.0726283	0	-0.121168	1600	0.0726283	0.000000000000000E+000	0.0726283	0.0000000E+000	0.000000000000000E+000	0.00218731
2	0	0	0	0	0	0	80.1	-0.770002	-0.770371	-2.83918	-0.263734	-0.263734	11	-0.0732596	0	-0.159353	1600	0.0732596	0.000000000000000E+000	0.0732596	0.0000000E+000	0.000000000000000E+000	0.00218722
2	0	0	0	0	0	0	80.9	-0.770002	-0.770428	-2.76856	-0.265991	-0.265991	11	-0.0738865	0	-0.178445	1600	0.0738865	0.000000000000000E+000	0.0738865	0.0000000E+000	0.000000000000000E+000	0.00213298
2	0	0	0	0	0	0	81.7	-0.770002	-0.770371	-2.70639	-0.268173	-0.268173	11	-0.0744924	0	-0.178445	1600	0.0744924	0.000000000000000E+000	0.0744924	0.0000000E+000	0.000000000000000E+000	0.00208492
2	0	0	0	0	0	0	82.5	-0.770002	-0.77039	-2.7169	-0.270342	-0.270342	11	-0.0750949	0	-0.197537	1600	0.0750949	0.000000000000000E+000	0.0750949	0.0000000E+000	0.000000000000000E+000	0.00209307
2	0	0	0	0	0	0	83.3	-0.770002	-0.770371	-2.74554	-0.272529	-0.272529	11	-0.0757025	0	-0.197537	1600	0.0757025	0.000000000000000E+000	0.0757025	0.0000000E+000	0.000000000000000E+000	0.00211508
2	0	0	0	0	0	0	84.1	-0.770002	-0.770409	-2.73848	-0.274724	-0.274724	11	-0.0763121	0	-0.14026	1600	0.0763121	0.000000000000000E+000	0.0763121	0.0000000E+000	0.000000000000000E+000	0.00210975
2	0	0	0	0	0	0	84.9	-0.770002	-0.770333	-2.74582	-0.276919	-0.276919	11	-0.0769218	0	-0.254813	1600	0.0769218	0.000000000000000E+000	0.0769218	0.0000000E+000	0.000000000000000E+000	0.00211519
2	0	0	0	0	0	0	85.7	-0.770002	-0.770504	-2.74057	-0.279113	-0.279113	11	-0.0775314	0	-0.216629	1600	0.0775314	0.000000000000000E+000	0.0775314	0.0000000E+000	0.000000000000000E+000	0.00211162
2	0	0	0	0	0	0	86.5	-0.770002	-0.770333	-2.73949	-0.281307	-0.281307	11	-0.0781407	0	-0.159353	1600	0.0781407	0.000000000000000E+000	0.0781407	0.0000000E+000	0.000000000000000E+000	0.00211032
2	0	0	0	0	0	0	87.3	-0.770002	-0.770275	-2.7453	-0.2835	-0.2835	11	-0.07875	0	-0.216629	1600	0.07875	0.000000000000000E+000	0.07875	0.0000000E+000	0.000000000000000E+000	0.00211464
2	0	0	0	0	0	0	88.1	-0.770002	-0.770256	-2.73489	-0.285691	-0.285691	11	-0.0793587	0	-0.159353	1600	0.0793587	0.000000000000000E+000	0.0793587	0.0000000E+000	0.000000000000000E+000	0.00210657
2	0	0	0	0	0	0	88.9	-0.770002	-0.770314	-2.73772	-0.287882	-0.287882	11	-0.0799673	0	-0.178445	1600	0.0799673	0.000000000000000E+000	0.0799673	0.0000000E+000	0.000000000000000E+000	0.0021089
2	0	0	0	0	0	0	89.7	-0.770002	-0.770352	-2.73394	-0.290069	-0.290069	11	-0.0805748	0	-0.254813	1600	0.0805748	0.000000000000000E+000	0.0805748	0.0000000E+000	0.000000000000000E+000	0.0021061
2	0	0	0	0	0	0	90.5	-0.770002	-0.770428	-2.73053	-0.292256	-0.292256	11	-0.0811823	0	-0.235721	1600	0.0811823	0.000000000000000E+000	0.0811823	0.0000000E+000	0.000000000000000E+000	0.00210368
2	0	0	0	0	0	0	91.3	-0.770002	-0.770294	-2.73586	-0.294443	-0.294443	11	-0.0817896	0	-0.254813	1600	0.0817896	0.000000000000000E+000	0.0817896	0.0000000E+000	0.000000000000000E+000	0.00210742
2	0	0	0	0	0	0	92.1	-0.770002	-0.77039	-2.72601	-0.296628	-0.296628	11	-0.0823966	0	-0.292998	1600	0.0823966	0.000000000000000E+000	0.0823966	0.0000000E+000	0.000000000000000E+000	0.00210009
2	0	0	0	0	0	0	92.9	-0.770002	-0.770428	-2.73289	-0.298813	-0.298813	11	-0.0830035	0	-0.197537	1600	0.0830035	0.000000000000000E+000	0.0830035	0.0000000E+000	0.000000000000000E+000	0.00210549
2	0	0	0	0	0	0	93.7	-0.770002	-0.77039	-2.73181	-0.300998	-0.300998	11	-0.0836107	0	-0.159353	1600	0.0836107	0.000000000000000E+000	0.0836107	0.0000000E+000	0.000000000000000E+000	0.00210456
2	0	0	0	0	0	0	94.5	-0.770002	-0.770294	-2.72492	-0.303181	-0.303181	11	-0.0842168	0	-0.235721	1600	0.0842168	0.000000000000000E+000	0.0842168	0.0000000E+000	0.000000000000000E+000	0.00209899
2	0	0	0	0	0	0	95.3	-0.770002	-0.770294	-2.73087	-0.305364	-0.305364	11	-0.0848232	0	-0.331182	1600	0.0848232	0.000000000000000E+000	0.0848232	0.0000000E+000	0.000000000000000E+000	0.00210358
2	0	0	0	0	0	0	96.1	-0.770002	-0.770256	-2.72199	-0.307543	-0.307543	11	-0.0854285	0	-0.197537	1600	0.0854285	0.000000000000000E+000	0.0854285	0.0000000E+000	0.000000000000000E+000	0.00209663
2	0	0	0	0	0	0	96.9	-0.770002	-0.770352	-2.67056	-0.309714	-0.309714	11	-0.0860315	0	-0.254813	1600	0.0860315	0.000000000000000E+000	0.0860315	0.0000000E+000	0.000000000000000E+000	0.00205727
2	0	0	0	0	0	0	97.7	-0.770002	-0.770447	-2.54865	-0.311784	-0.311784	11	-0.0866067	0	-0.235721	1600	0.0866067	0.000000000000000E+000	0.0866067	0.0000000E+000	0.000000000000000E+000	0.0019636
2	0	0	0	0	0	0	98.5	-0.770002	-0.77039	-2.52522	-0.313808	-0.313808	11	-0.0871688	0	-0.292998	1600	0.0871688	0.000000000000000E+000	0.0871688	0.0000000E+000	0.000000000000000E+000	0.0019454
2	0	0	0	0	0	0	99.3	-0.770002	-0.770314	-2.51867	-0.315821	-0.315821	11	-0.0877281	0	-0.159353	1600	0.0877281	0.000000000000000E+000	0.0877281	0.0000000E+000	0.000000000000000E+000	0.00194017
2	0	0	0	0	0	0	100.1	-0.770002	-0.770352	-2.51621	-0.317832	-0.317832	11	-0.0882866	0	-0.292998	1600	0.0882866	0.000000000000000E+000	0.0882866	0.0000000E+000	0.000000000000000E+000	0.00193837
2	0	0	0	0	0	0	100.9	-0.770002	-0.770294	-2.51515	-0.319841	-0.319841	11	-0.0888448	0	-0.197537	1600	0.0888448	0.000000000000000E+000	0.0888448	0.0000000E+000	0.000000000000000E+000	0.00193741
2	0	0	0	0	0	0	101.7	-0.770002	-0.770333	-2.51235	-0.321851	-0.321851	11	-0.089403	0	-0.273906	1600	0.089403	0.000000000000000E+000	0.089403	0.0000000E+000	0.000000000000000E+000	0.00193535
2	0	0	0	0	0	0	102.5	-0.770002	-0.770371	-2.50805	-0.323858	-0.323858	11	-0.0899607	0	-0.178445	1600	0.0899607	0.000000000000000E+000	0.0899607	0.0000000E+000	0.000000000000000E+000	0.00193213
2	0	0	0	0	0	0	103.3	-0.770002	-0.77039	-2.50656	-0.325866	-0.325866	11	-0.0905183	0	-0.254813	1600	0.0905183	0.000000000000000E+000	0.0905183	0.0000000E+000	0.000000000000000E+000	0.00193103
2	0	0	0	0	0	0	104.1	-0.770002	-0.770409	-2.50587	-0.327873	-0.327873	11	-0.091076	0	-0.235721	1600	0.091076	0.000000000000000E+000	0.091076	0.0000000E+000	0.000000000000000E+000	0.00193055
2	0	0	0	0	0	0	104.9	-0.770002	-0.770466	-2.50294	-0.32988	-0.32988	11	-0.0916333	0	-0.178445	1600	0.0916333	0.000000000000000E+000	0.0916333	0.0000000E+000	0.000000000000000E+000	0.00192843
2	0	0	0	0	0	0	105.7	-0.770002	-0.770294	-2.50267	-0.331885	-0.331885	11	-0.0921904	0	-0.178445	1600	0.0921904	0.000000000000000E+000	0.0921904	0.0000000E+000	0.000000000000000E+000	0.00192779
2	0	0	0	0	0	0	106.5	-0.770002	-0.770447	-2.50556	-0.33389	-0.33389	11	-0.0927471	0	-0.273906	1600	0.0927471	0.000000000000000E+000	0.0927471	0.0000000E+000	0.000000000000000E+000	0.0019304
2	0	0	0	0	0	0	107.3	-0.770002	-0.770314	-2.50384	-0.335893	-0.335893	11	-0.0933035	0	-0.235721	1600	0.0933035	0.000000000000000E+000	0.0933035	0.0000000E+000	0.000000000000000E+000	0.00192874
2	0	0	0	0	0	0	108.1	-0.770002	-0.770409	-2.50306	-0.337894	-0.337894	11	-0.0938595	0	-0.178445	1600	0.0938595	0.000000000000000E+000	0.0938595	0.0000000E+000	0.000000000000000E+000	0.00192838
2	0	0	0	0	0	0	108.9	-0.770002	-0.770275	-2.45013	-0.339887	-0.339887	11	-0.0944131	0	-0.121168	1600	0.0944131	0.000000000000000E+000	0.0944131	0.0000000E+000	0.000000000000000E+000	0.00188727
2	0	0	0	0	0	0	109.7	-0.770002	-0.770409	-2.25725	-0.341756	-0.341756	11	-0.0949323	0	-0.216629	1600	0.0949323	0.000000000000000E+000	0.0949323	0.0000000E+000	0.000000000000000E+000	0.001739
2	0	0	0	0	0	0	110.5	-0.770002	-0.770371	-2.12619	-0.343497	-0.343497	11	-0.0954158	0	-0.216629	1600	0.0954158	0.000000000000000E+000	0.0954158	0.0000000E+000	0.000000000000000E+000	0.00163796
2	0	0	0	0	0	0	111.3	-0.770002	-0.770485	-2.06867	-0.345169	-0.345169	11	-0.0958803	0	-0.292998	1600	0.0958803	0.000000000000000E+000	0.0958803	0.0000000E+000	0.000000000000000E+000	0.00159388
2	0	0	0	0	0	0	112.1	-0.770002	-0.770409	-2.0477	-0.346812	-0.346812	11	-0.0963368	0	-0.254813	1600	0.0963368	0.000000000000000E+000	0.0963368	0.0000000E+000	0.000000000000000E+000	0.00157757
2	0	0	0	0	0	0	112.9	-0.770002	-0.770371	-2.03437	-0.348442	-0.348442	11	-0.0967895	0	-0.159353	1600	0.0967895	0.000000000000000E+000	0.0967895	0.0000000E+000	0.000000000000000E+000	0.00156722
2	0	0	0	0	0	0	113.7	-0.770002	-0.770447	-2.027	-0.350066	-0.350066	11	-0.0972407	0	-0.197537	1600	0.0972407	0.000000000000000E+000	0.0972407	0.0000000E+000	0.000000000000000E+000	0.0015617
2	0	0	0	0	0	0	114.5	-0.770002	-0.770294	-2.02904	-0.351688	-0.351688	11	-0.0976912	0	-0.159353	1600	0.0976912	0.000000000000000E+000	0.0976912	0.0000000E+000	0.000000000000000E+000	0.00156296
2	0	0	0	0	0	0	115.3	-0.770002	-0.770447	-2.02703	-0.353309	-0.353309	11	-0.0981415	0	-0.159353	1600	0.0981415	0.000000000000000E+000	0.0981415	0.0000000E+000	0.000000000000000E+000	0.00156172
2	0	0	0	0	0	0	116.1	-0.770002	-0.770352	-2.02315	-0.354929	-0.354929	11	-0.0985914	0	-0.273906	1600	0.0985914	0.000000000000000E+000	0.0985914	0.0000000E+000	0.000000000000000E+000	0.00155854
2	0	0	0	0	0	0	116.9	-0.770002	-0.77039	-2.02355	-0.356548	-0.356548	11	-0.099041	0	-0.121168	1600	0.099041	0.000000000000000E+000	0.099041	0.0000000E+000	0.000000000000000E+000	0.00155893
2	0	0	0	0	0	0	117.7	-0.770002	-0.770333	-2.02666	-0.358167	-0.358167	11	-0.0994909	0	-0.216629	1600	0.0994909	0.000000000000000E+000	0.0994909	0.0000000E+000	0.000000000000000E+000	0.0015612
2	0	0	0	0	0	0	118.5	-0.770002	-0.770371	-2.02181	-0.359786	-0.359786	11	-0.0999406	0	-0.197537	1600	0.0999406	0.000000000000000E+000	0.0999406	0.0000000E+000	0.000000000000000E+000	0.00155754
2	0	0	0	0	0	0	119.3	-0.770002	-0.770237	-2.01908	-0.361405	-0.361405	11	-0.10039	0	-0.197537	1600	0.10039	0.000000000000000E+000	0.10039	0.0000000E+000	0.000000000000000E+000	0.00155517
2	0	0	0	0	0	0	120.1	-0.770002	-0.770294	-2.02674	-0.363023	-0.363023	11	-0.10084	0	-0.197537	1600	0.10084	0.000000000000000E+000	0.10084	0.0000000E+000	0.000000000000000E+000	0.00156119
2	0	0	0	0	0	0	120.9	-0.770002	-0.770314	-2.02167	-0.364642	-0.364642	11	-0.101289	0	-0.235721	1600	0.101289	0.000000000000000E+000	0.101289	0.0000000E+000	0.000000000000000E+000	0.00155732
2	0	0	0	0	0	0	121.7	-0.770002	-0.77039	-2.01735	-0.366258	-0.366258	11	-0.101738	0	-0.235721	1600	0.101738	0.000000000000000E+000	0.101738	0.0000000E+000	0.000000000000000E+000	0.00155415
2	0	0	0	0	0	0	122.5	-0.770002	-0.770314	-2.02178	-0.367875	-0.367875	11	-0.102188	0	-0.197537	1600	0.102188	0.000000000000000E+000	0.102188	0.0000000E+000	0.000000000000000E+000	0.0015574
2	0	0	0	0	0	0	123.3	-0.770002	-0.770352	-2.06221	-0.369506	-0.369506	11	-0.102641	0	-0.216629	1600	0.102641	0.000000000000000E+000	0.102641	0.0000000E+000	0.000000000000000E+000	0.00158862
2	0	0	0	0	0	0	124.1	-0.770002	-0.770294	-2.15689	-0.371198	-0.371198	11	-0.103111	0	-0.235721	1600	0.103111	0.000000000000000E+000	0.103111	0.0000000E+000	0.000000000000000E+000	0.00166144
2	0	0	0	0	0	0	124.9	-0.770002	-0.770447	-2.2025	-0.372944	-0.372944	11	-0.103596	0	-0.197537	1600	0.103596	0.000000000000000E+000	0.103596	0.0000000E+000	0.000000000000000E+000	0.00169691
2	0	0	0	0	0	0	125.7	-0.770002	-0.770314	-2.21682	-0.374711	-0.374711	11	-0.104086	0	-0.235721	1600	0.104086	0.000000000000000E+000	0.104086	0.0000000E+000	0.000000000000000E+000	0.00170765
2	0	0	0	0	0	0	126.5	-0.770002	-0.77039	-2.21543	-0.376484	-0.376484	11	-0.104579	0	-0.197537	1600	0.104579	0.000000000000000E+000	0.104579	0.0000000E+000	0.000000000000000E+000	0.00170674
2	0	0	0	0	0	0	127.3	-0.770002	-0.770409	-2.21516	-0.37826	-0.37826	11	-0.105072	0	-0.235721	1600	0.105072	0.000000000000000E+000	0.105072	0.0000000E+000	0.000000000000000E+000	0.00170658
2	0	0	0	0	0	0	128.1	-0.770002	-0.770504	-2.21716	-0.380036	-0.380036	11	-0.105566	0	-0.235721	1600	0.105566	0.000000000000000E+000	0.105566	0.0000000E+000	0.000000000000000E+000	0.00170833
2	0	0	0	0	0	0	128.9	-0.770002	-0.770352	-2.22123	-0.381812	-0.381812	11	-0.106059	0	-0.216629	1600	0.106059	0.000000000000000E+000	0.106059	0.0000000E+000	0.000000000000000E+000	0.00171113
2	0	0	0	0	0	0	129.7	-0.770002	-0.770409	-2.22149	-0.383586	-0.383586	11	-0.106552	0	-0.235721	1600	0.106552	0.000000000000000E+000	0.106552	0.0000000E+000	0.000000000000000E+000	0.00171145
2	0	0	0	0	0	0	130.5	-0.770002	-0.770333	-2.22005	-0.38536	-0.38536	11	-0.107044	0	-0.159353	1600	0.107044	0.000000000000000E+000	0.107044	0.0000000E+000	0.000000000000000E+000	0.00171017
2	0	0	0	0	0	0	131.3	-0.770002	-0.770333	-2.21186	-0.387133	-0.387133	11	-0.107537	0	-0.121168	1600	0.107537	0.000000000000000E+000	0.107537	0.0000000E+000	0.000000000000000E+000	0.00170387
2	0	0	0	0	0	0	132.1	-0.770002	-0.770409	-2.21108	-0.388905	-0.388905	11	-0.108029	0	-0.159353	1600	0.108029	0.000000000000000E+000	0.108029	0.0000000E+000	0.000000000000000E+000	0.00170343
2	0	0	0	0	0	0	132.9	-0.770002	-0.77039	-2.21159	-0.390677	-0.390677	11	-0.108521	0	-0.121168	1600	0.108521	0.000000000000000E+000	0.108521	0.0000000E+000	0.000000000000000E+000	0.00170379
2	0	0	0	0	0	0	133.7	-0.770002	-0.770314	-2.36411	-0.392487	-0.392487	11	-0.109024	0	-0.254813	1600	0.109024	0.000000000000000E+000	0.109024	0.0000000E+000	0.000000000000000E+000	0.0018211
2	0	0	0	0	0	0	134.5	-0.770002	-0.770428	-2.45753	-0.394429	-0.394429	11	-0.109564	0	-0.102076	1600	0.109564	0.000000000000000E+000	0.109564	0.0000000E+000	0.000000000000000E+000	0.00189335
2	0	0	0	0	0	0	135.3	-0.770002	-0.770314	-2.46544	-0.396396	-0.396396	11	-0.11011	0	-0.216629	1600	0.11011	0.000000000000000E+000	0.11011	0.0000000E+000	0.000000000000000E+000	0.00189916
2	0	0	0	0	0	0	136.1	-0.770002	-0.770466	-2.46583	-0.398368	-0.398368	11	-0.110658	0	-0.197537	1600	0.110658	0.000000000000000E+000	0.110658	0.0000000E+000	0.000000000000000E+000	0.00189984
2	0	0	0	0	0	0	136.9	-0.770002	-0.770409	-2.4618	-0.40034	-0.40034	11	-0.111205	0	-0.159353	1600	0.111205	0.000000000000000E+000	0.111205	0.0000000E+000	0.000000000000000E+000	0.00189659
2	0	0	0	0	0	0	137.7	-0.770002	-0.77039	-2.45805	-0.402311	-0.402311	11	-0.111753	0	-0.31209	1600	0.111753	0.000000000000000E+000	0.111753	0.0000000E+000	0.000000000000000E+000	0.00189366
2	0	0	0	0	0	0	138.5	-0.770002	-0.77039	-2.45906	-0.404282	-0.404282	11	-0.112301	0	-0.235721	1600	0.112301	0.000000000000000E+000	0.112301	0.0000000E+000	0.000000000000000E+000	0.00189444
2	0	0	0	0	0	0	139.3	-0.770002	-0.770352	-2.45957	-0.406254	-0.406254	11	-0.112848	0	-0.14026	1600	0.112848	0.000000000000000E+000	0.112848	0.0000000E+000	0.000000000000000E+000	0.00189473
2	0	0	0	0	0	0	140.1	-0.770002	-0.77039	-2.46045	-0.408224	-0.408224	11	-0.113396	0	-0.216629	1600	0.113396	0.000000000000000E+000	0.113396	0.0000000E+000	0.000000000000000E+000	0.0018955
2	0	0	0	0	0	0	140.9	-0.770002	-0.770428	-2.46297	-0.410194	-0.410194	11	-0.113943	0	-0.159353	1600	0.113943	0.000000000000000E+000	0.113943	0.0000000E+000	0.000000000000000E+000	0.00189754
2	0	0	0	0	0	0	141.7	-0.770002	-0.770333	-2.46628	-0.412164	-0.412164	11	-0.11449	0	-0.273906	1600	0.11449	0.000000000000000E+000	0.11449	0.0000000E+000	0.000000000000000E+000	0.00189986
2	0	0	0	0	0	0	142.5	-0.770002	-0.770237	-2.46624	-0.414133	-0.414133	11	-0.115037	0	-0.273906	1600	0.115037	0.000000000000000E+000	0.115037	0.0000000E+000	0.000000000000000E+000	0.00189959
2	0	0	0	0	0	0	143.3	-0.770002	-0.770352	-2.46564	-0.416101	-0.416101	11	-0.115583	0	-0.235721	1600	0.115583	0.000000000000000E+000	0.115583	0.0000000E+000	0.000000000000000E+000	0.00189941
2	0	0	0	0	0	0	144.1	-0.770002	-0.770314	-2.46615	-0.418069	-0.418069	11	-0.11613	0	-0.216629	1600	0.11613	0.000000000000000E+000	0.11613	0.0000000E+000	0.000000000000000E+000	0.00189971
2	0	0	0	0	0	0	144.9	-0.770002	-0.770466	-2.46078	-0.420037	-0.420037	11	-0.116677	0	-0.14026	1600	0.116677	0.000000000000000E+000	0.116677	0.0000000E+000	0.000000000000000E+000	0.00189595
2	0	0	0	0	0	0	145.7	-0.770002	-0.770294	-2.59946	-0.422056	-0.422056	11	-0.117238	0	-0.178445	1600	0.117238	0.000000000000000E+000	0.117238	0.0000000E+000	0.000000000000000E+000	0.00200235
2	0	0	0	0	0	0	146.5	-0.770002	-0.770352	-2.64925	-0.424163	-0.424163	11	-0.117823	0	-0.31209	1600	0.117823	0.000000000000000E+000	0.117823	0.0000000E+000	0.000000000000000E+000	0.00204085
2	0	0	0	0	0	0	147.3	-0.770002	-0.770352	-2.64877	-0.426284	-0.426284	11	-0.118412	0	-0.292998	1600	0.118412	0.000000000000000E+000	0.118412	0.0000000E+000	0.000000000000000E+000	0.00204048
2	0	0	0	0	0	0	148.1	-0.770002	-0.770333	-2.65648	-0.428407	-0.428407	11	-0.119002	0	-0.159353	1600	0.119002	0.000000000000000E+000	0.119002	0.0000000E+000	0.000000000000000E+000	0.00204638
2	0	0	0	0	0	0	148.9	-0.770002	-0.770294	-2.6436	-0.430525	-0.430525	11	-0.11959	0	-0.235721	1600	0.11959	0.000000000000000E+000	0.11959	0.0000000E+000	0.000000000000000E+000	0.00203635
2	0	0	0	0	0	0	149.7	-0.770002	-0.770352	-2.64871	-0.432644	-0.432644	11	-0.120179	0	-0.235721	1600	0.120179	0.000000000000000E+000	0.120179	0.0000000E+000	0.000000000000000E+000	0.00204044
2	0	0	0	0	0	0	150.5	-0.770002	-0.770524	-2.64816	-0.434761	-0.434761	11	-0.120767	0	-0.159353	1600	0.120767	0.000000000000000E+000	0.120767	0.0000000E+000	0.000000000000000E+000	0.00204047
2	0	0	0	0	0	0	151.3	-0.770002	-0.770371	-2.63879	-0.436877	-0.436877	11	-0.121355	0	-0.0829839	1600	0.121355	0.000000000000000E+000	0.121355	0.0000000E+000	0.000000000000000E+000	0.00203285
2	0	0	0	0	0	0	152.1	-0.770002	-0.770333	-2.65346	-0.438994	-0.438994	11	-0.121943	0	-0.216629	1600	0.121943	0.000000000000000E+000	0.121943	0.0000000E+000	0.000000000000000E+000	0.00204405
2	0	0	0	0	0	0	152.9	-0.770002	-0.770447	-2.64098	-0.441111	-0.441111	11	-0.122531	0	-0.216629	1600	0.122531	0.000000000000000E+000	0.122531	0.0000000E+000	0.000000000000000E+000	0.00203474
2	0	0	0	0	0	0	153.7	-0.770002	-0.770275	-2.64191	-0.443227	-0.443227	11	-0.123119	0	-0.14026	1600	0.123119	0.000000000000000E+000	0.123119	0.0000000E+000	0.000000000000000E+000	0.002035
2	0	0	0	0	0	0	154.5	-0.770002	-0.770333	-2.6455	-0.44534	-0.44534	11	-0.123706	0	-0.197537	1600	0.123706	0.000000000000000E+000	0.123706	0.0000000E+000	0.000000000000000E+000	0.00203792
2	0	0	0	0	0	0	155.3	-0.770002	-0.77039	-2.76514	-0.447485	-0.447485	11	-0.124301	0	-0.216629	1600	0.124301	0.000000000000000E+000	0.124301	0.0000000E+000	0.000000000000000E+000	0.00213023
2	0	0	0	0	0	0	156.1	-0.770002	-0.770333	-2.89097	-0.449772	-0.449772	11	-0.124937	0	-0.178445	1600	0.124937	0.000000000000000E+000	0.124937	0.0000000E+000	0.000000000000000E+000	0.00222701
2	0	0	0	0	0	0	156.9	-0.770002	-0.77039	-2.89275	-0.452086	-0.452086	11	-0.125579	0	-0.14026	1600	0.125579	0.000000000000000E+000	0.125579	0.0000000E+000	0.000000000000000E+000	0.00222855
2	0	0	0	0	0	0	157.7	-0.770002	-0.77039	-2.88722	-0.454399	-0.454399	11	-0.126222	0	-0.235721	1600	0.126222	0.000000000000000E+000	0.126222	0.0000000E+000	0.000000000000000E+000	0.00222429
2	0	0	0	0	0	0	158.5	-0.770002	-0.770371	-2.88707	-0.456709	-0.456709	11	-0.126864	0	-0.197537	1600	0.126864	0.000000000000000E+000	0.126864	0.0000000E+000	0.000000000000000E+000	0.00222411
2	0	0	0	0	0	0	159.3	-0.770002	-0.770333	-2.88567	-0.459017	-0.459017	11	-0.127505	0	-0.216629	1600	0.127505	0.000000000000000E+000	0.127505	0.0000000E+000	0.000000000000000E+000	0.00222293
2	0	0	0	0	0	0	160.1	-0.770002	-0.770524	-2.88411	-0.461326	-0.461326	11	-0.128146	0	-0.254813	1600	0.128146	0.000000000000000E+000	0.128146	0.0000000E+000	0.000000000000000E+000	0.00222227
2	0	0	0	0	0	0	160.9	-0.770002	-0.770543	-2.88448	-0.463634	-0.463634	11	-0.128787	0	-0.235721	1600	0.128787	0.000000000000000E+000	0.128787	0.0000000E+000	0.000000000000000E+000	0.00222261
2	0	0	0	0	0	0	161.7	-0.770002	-0.770294	-2.88012	-0.46594	-0.46594	11	-0.129428	0	-0.254813	1600	0.129428	0.000000000000000E+000	0.129428	0.0000000E+000	0.000000000000000E+000	0.00221854
2	0	0	0	0	0	0	162.5	-0.770002	-0.770237	-2.87447	-0.468243	-0.468243	11	-0.130067	0	-0.235721	1600	0.130067	0.000000000000000E+000	0.130067	0.0000000E+000	0.000000000000000E+000	0.00221402
2	0	0	0	0	0	0	163.3	-0.770002	-0.770447	-2.87851	-0.470546	-0.470546	11	-0.130707	0	-0.216629	1600	0.130707	0.000000000000000E+000	0.130707	0.0000000E+000	0.000000000000000E+000	0.00221774
2	0	0	0	0	0	0	164.1	-0.770002	-0.770218	-2.87414	-0.472847	-0.472847	11	-0.131346	0	-0.197537	1600	0.131346	0.000000000000000E+000	0.131346	0.0000000E+000	0.000000000000000E+000	0.00221371
2	0	0	0	0	0	0	164.9	-0.770002	-0.770333	-2.87597	-0.475146	-0.475146	11	-0.131985	0	-0.14026	1600	0.131985	0.000000000000000E+000	0.131985	0.0000000E+000	0.000000000000000E+000	0.00221545
2	0	0	0	0	0	0	165.7	-0.770002	-0.770466	-2.87412	-0.477446	-0.477446	11	-0.132624	0	-0.254813	1600	0.132624	0.000000000000000E+000	0.132624	0.0000000E+000	0.000000000000000E+000	0.00221441
2	0	0	0	0	0	0	166.5	-0.770002	-0.770294	-2.87303	-0.479744	-0.479744	11	-0.133262	0	-0.235721	1600	0.133262	0.000000000000000E+000	0.133262	0.0000000E+000	0.000000000000000E+000	0.00221308
2	0	0	0	0	0	0	167.3	-0.770002	-0.77039	-2.87489	-0.482044	-0.482044	11	-0.133901	0	-0.0829839	1600	0.133901	0.000000000000000E+000	0.133901	0.0000000E+000	0.000000000000000E+000	0.00221478
2	0	0	0	0	0	0	168.1	-0.770002	-0.77039	-2.86947	-0.484341	-0.484341	11	-0.134539	0	-0.216629	1600	0.134539	0.000000000000000E+000	0.134539	0.0000000E+000	0.000000000000000E+000	0.00221061
2	0	0	0	0	0	0	168.9	-0.770002	-0.770447	-2.871	-0.486638	-0.486638	11	-0.135177	0	-0.178445	1600	0.135177	0.000000000000000E+000	0.135177	0.0000000E+000	0.000000000000000E+000	0.00221195
2	0	0	0	0	0	0	169.7	-0.770002	-0.770409	-2.88535	-0.488936	-0.488936	11	-0.135816	0	-0.197537	1600	0.135816	0.000000000000000E+000	0.135816	0.0000000E+000	0.000000000000000E+000	0.0022229
2	0	0	0	0	0	0	170.5	-0.770002	-0.770352	-2.97635	-0.491289	-0.491289	11	-0.136469	0	-0.235721	1600	0.136469	0.000000000000000E+000	0.136469	0.0000000E+000	0.000000000000000E+000	0.00229283
2	0	0	0	0	0	0	171.3	-0.770002	-0.770447	-2.98635	-0.493681	-0.493681	11	-0.137134	0	-0.178445	1600	0.137134	0.000000000000000E+000	0.137134	0.0000000E+000	0.000000000000000E+000	0.00230082
2	0	0	0	0	0	0	172.1	-0.770002	-0.770466	-2.98054	-0.496068	-0.496068	11	-0.137797	0	-0.331182	1600	0.137797	0.000000000000000E+000	0.137797	0.0000000E+000	0.000000000000000E+000	0.0022964
2	0	0	0	0	0	0	172.9	-0.770002	-0.770275	-2.9822	-0.498454	-0.498454	11	-0.138459	0	-0.216629	1600	0.138459	0.000000000000000E+000	0.138459	0.0000000E+000	0.000000000000000E+000	0.00229712
2	0	0	0	0	0	0	173.7	-0.770002	-0.770371	-2.98192	-0.500839	-0.500839	11	-0.139122	0	-0.121168	1600	0.139122	0.000000000000000E+000	0.139122	0.0000000E+000	0.000000000000000E+000	0.00229718
2	0	0	0	0	0	0	174.5	-0.770002	-0.770428	-2.97967	-0.503223	-0.503223	11	-0.139784	0	-0.159353	1600	0.139784	0.000000000000000E+000	0.139784	0.0000000E+000	0.000000000000000E+000	0.00229562
2	0	0	0	0	0	0	175.3	-0.770002	-0.770333	-2.97979	-0.505606	-0.505606	11	-0.140446	0	-0.197537	1600	0.140446	0.000000000000000E+000	0.140446	0.0000000E+000	0.000000000000000E+000	0.00229543
2	0	0	0	0	0	0	176.1	-0.770002	-0.770333	-2.97873	-0.507988	-0.507988	11	-0.141108	0	-0.216629	1600	0.141108	0.000000000000000E+000	0.141108	0.0000000E+000	0.000000000000000E+000	0.00229461
2	0	0	0	0	0	0	176.9	-0.770002	-0.770065	-2.97916	-0.510368	-0.510368	11	-0.141769	0	-0.159353	1600	0.141769	0.000000000000000E+000	0.141769	0.0000000E+000	0.000000000000000E+000	0.00229415
2	0	0	0	0	0	0	177.7	-0.770002	-0.770409	-2.97729	-0.512748	-0.512748	11	-0.14243	0	-0.102076	1600	0.14243	0.000000000000000E+000	0.14243	0.0000000E+000	0.000000000000000E+000	0.00229373
2	0	0	0	0	0	0	178.5	-0.770002	-0.770428	-2.97352	-0.515125	-0.515125	11	-0.14309	0	-0.235721	1600	0.14309	0.000000000000000E+000	0.14309	0.0000000E+000	0.000000000000000E+000	0.00229088
2	0	0	0	0	0	0	179.3	-0.770002	-0.770256	-2.9747	-0.517503	-0.517503	11	-0.143751	0	-0.216629	1600	0.143751	0.000000000000000E+000	0.143751	0.0000000E+000	0.000000000000000E+000	0.00229128
2	0	0	0	0	0	0	180.1	-0.770002	-0.77039	-2.97165	-0.519879	-0.519879	11	-0.144411	0	-0.197537	1600	0.144411	0.000000000000000E+000	0.144411	0.0000000E+000	0.000000000000000E+000	0.00228933
2	0	0	0	0	0	0	180.9	-0.770002	-0.770409	-2.96844	-0.522253	-0.522253	11	-0.14507	0	-0.197537	1600	0.14507	0.000000000000000E+000	0.14507	0.0000000E+000	0.000000000000000E+000	0.00228691
2	0	0	0	0	0	0	181.7	-0.770002	-0.770485	-2.9668	-0.524626	-0.524626	11	-0.145729	0	-0.159353	1600	0.145729	0.000000000000000E+000	0.145729	0.0000000E+000	0.000000000000000E+000	0.00228588
2	0	0	0	0	0	0	182.5	-0.770002	-0.770275	-3.14432	-0.52706	-0.52706	11	-0.146405	0	-0.102076	1600	0.146405	0.000000000000000E+000	0.146405	0.0000000E+000	0.000000000000000E+000	0.002422
2	0	0	0	0	0	0	183.3	-0.770002	-0.770447	-3.12076	-0.529566	-0.529566	11	-0.147102	0	-0.31209	1600	0.147102	0.000000000000000E+000	0.147102	0.0000000E+000	0.000000000000000E+000	0.00240438
2	0	0	0	0	0	0	184.1	-0.770002	-0.770352	-3.11048	-0.532054	-0.532054	11	-0.147793	0	-0.235721	1600	0.147793	0.000000000000000E+000	0.147793	0.0000000E+000	0.000000000000000E+000	0.00239616
2	0	0	0	0	0	0	184.9	-0.770002	-0.770371	-3.10827	-0.53454	-0.53454	11	-0.148483	0	-0.292998	1600	0.148483	0.000000000000000E+000	0.148483	0.0000000E+000	0.000000000000000E+000	0.00239452
2	0	0	0	0	0	0	185.7	-0.770002	-0.770314	-3.10302	-0.537026	-0.537026	11	-0.149174	0	-0.178445	1600	0.149174	0.000000000000000E+000	0.149174	0.0000000E+000	0.000000000000000E+000	0.0023903
2	0	0	0	0	0	0	186.5	-0.770002	-0.770352	-3.10703	-0.53951	-0.53951	11	-0.149864	0	-0.197537	1600	0.149864	0.000000000000000E+000	0.149864	0.0000000E+000	0.000000000000000E+000	0.00239351
2	0	0	0	0	0	0	187.3	-0.770002	-0.770352	-3.10186	-0.541993	-0.541993	11	-0.150554	0	-0.254813	1600	0.150554	0.000000000000000E+000	0.150554	0.0000000E+000	0.000000000000000E+000	0.00238952
2	0	0	0	0	0	0	188.1	-0.770002	-0.770466	-3.10093	-0.544474	-0.544474	11	-0.151243	0	-0.254813	1600	0.151243	0.000000000000000E+000	0.151243	0.0000000E+000	0.000000000000000E+000	0.00238916
2	0	0	0	0	0	0	188.9	-0.770002	-0.770352	-3.10133	-0.546955	-0.546955	11	-0.151932	0	-0.178445	1600	0.151932	0.000000000000000E+000	0.151932	0.0000000E+000	0.000000000000000E+000	0.00238912
2	0	0	0	0	0	0	189.7	-0.770002	-0.770333	-3.09893	-0.549434	-0.549434	11	-0.152621	0	-0.216629	1600	0.152621	0.000000000000000E+000	0.152621	0.0000000E+000	0.000000000000000E+000	0.00238721
2	0	0	0	0	0	0	190.5	-0.770002	-0.770409	-3.09842	-0.551914	-0.551914	11	-0.15331	0	-0.178445	1600	0.15331	0.000000000000000E+000	0.15331	0.0000000E+000	0.000000000000000E+000	0.00238705
2	0	0	0	0	0	0	191.3	-0.770002	-0.770428	-3.10162	-0.554393	-0.554393	11	-0.153998	0	-0.178445	1600	0.153998	0.000000000000000E+000	0.153998	0.0000000E+000	0.000000000000000E+000	0.00238958
2	0	0	0	0	0	0	192.1	-0.770002	-0.770237	-3.09531	-0.556872	-0.556872	11	-0.154687	0	-0.216629	1600	0.154687	0.000000000000000E+000	0.154687	0.0000000E+000	0.000000000000000E+000	0.00238412
2	0	0	0	0	0	0	192.9	-0.770002	-0.770352	-3.09602	-0.559348	-0.559348	11	-0.155374	0	-0.159353	1600	0.155374	0.000000000000000E+000	0.155374	0.0000000E+000	0.000000000000000E+000	0.00238502
2	0	0	0	0	0	0	193.7	-0.770002	-0.770428	-3.09723	-0.561825	-0.561825	11	-0.156062	0	-0.292998	1600	0.156062	0.000000000000000E+000	0.156062	0.0000000E+000	0.000000000000000E+000	0.0023862
2	0	0	0	0	0	0	194.5	-0.770002	-0.770428	-3.09195	-0.564299	-0.564299	11	-0.15675	0	-0.216629	1600	0.15675	0.000000000000000E+000	0.15675	0.0000000E+000	0.000000000000000E+000	0.00238212
2	0	0	0	0	0	0	195.3	-0.770002	-0.770409	-3.09182	-0.566773	-0.566773	11	-0.157437	0	-0.273906	1600	0.157437	0.000000000000000E+000	0.157437	0.0000000E+000	0.000000000000000E+000	0.00238197
2	0	0	0	0	0	0	195.572	-0.770002	-0.770447	-3.09288	-0.567615	-0.567615	11	-0.157671	0	-0.350274	1600	0.157671	0.000000000000000E+000	0.157671	INF	0.000000000000000E+000	0.0023829