File: ZnPVAGAECH_1 03-20-22-ZnGAPVA ECH-1600 rpm at -1V vs RHE RDE3_02_CA_C05.mpt
EC-Lab ASCII FILE
Nb header lines : 71

Chronoamperometry / Chronocoulometry

Run on channel : 5 (SN 6729)
User :
CE vs. WE compliance from -10 V to 10 V
Electrode connection : standard
Potential control : Ewe
Ewe ctrl range : min = -2.50 V, max = 2.50 V
Safety Limits :
	Do not start on E overload
Acquisition started on : 03/20/2022 13:48:04.552
Technique started on : 03/20/2022 13:48:09.700
Loaded Setting File :  NONE
Saved on :
	File : 03-20-22-ZnGAPVA  ECH-1600 rpm at -0_8V vs RHE RDE3_02_CA_C05.mpr
	Directory : \\research-scb.egr.msu.edu\research-scb\Mindy\Koutecky Levich\Zn GA PVA 001\ECH\03-20-22\
	Host : 35.9.136.210
Device : VSP (SN 0012)
Address : 35.9.137.65
EC-Lab for windows v11.43 (software)
Internet server v11.40 (firmware)
Command interpretor v11.40 (firmware)
Electrode material :
Initial state :
Electrolyte :
Comments :
Electrode surface area : 0.196 cm²
Characteristic mass : 0.001 g
Equivalent Weight : 0.000 g/eq.
Density : 0.000 g/cm3
Volume (V) : 0.001 cm³
Cycle Definition : Charge/Discharge alternance
Ei (V)              -1.000
vs.                 Ref
ti (h:m:s)          0:30:0.0000
Imax                pass
unit Imax           mA
Imin                pass
unit Imin           mA
dQM                 0.000
unit dQM            mA.h
record              <I>
dI                  5.000
unit dI             µA
dQ                  0.000
unit dQ             mA.h
dt (s)              0.1000
dta (s)             0.1000
E range min (V)     -2.500
E range max (V)     2.500
I Range             Auto
I Range min         Unset
I Range max         Unset
I Range init        Unset
Bandwidth           5
goto Ns'            0
nc cycles           0

Modify on : 03/20/2022 13:48
Ei (V)              -0.900

Modify on : 03/20/2022 13:48
Ei (V)              -0.800

Modify on : 03/20/2022 13:48
Ei (V)              -0.700

mode	ox/red	error	control changes	Ns changes	counter inc.	Ns	time/s	control/V	Ewe/V	<I>/mA	dQ/C	(Q-Qo)/C	I Range	Q charge/discharge/mA.h	half cycle	Q discharge/mA.h	Q charge/mA.h	Capacity/mA.h	Efficiency/%	cycle number	P/W
2	0	0	0	0	0	0	5.1484	-1.00004	-1.00037	-8.91685	-0.000156381	-0.000156381	11	-4.34392e-05	0	4.34392e-05	0.000000000000000E+000	4.34392e-05	0.0000000E+000	0.000000000000000E+000	0.0089201
2	0	0	0	0	0	0	6.4484	-1.00004	-1.00044	-6.25931	-0.00982566	-0.00982566	11	-0.00272935	0	0.00272935	0.000000000000000E+000	0.00272935	0.0000000E+000	0.000000000000000E+000	0.00626207
2	0	0	0	0	0	0	7.7484	-1.00004	-1.00048	-5.67785	-0.0174742	-0.0174742	11	-0.00485396	0	0.00485396	0.000000000000000E+000	0.00485396	0.0000000E+000	0.000000000000000E+000	0.00568057
2	0	0	0	0	0	0	9.0484	-1.00004	-1.00042	-5.3651	-0.02459	-0.02459	11	-0.00683056	0	0.00683056	0.000000000000000E+000	0.00683056	0.0000000E+000	0.000000000000000E+000	0.00536737
2	0	0	0	0	0	0	10.3484	-1.00004	-1.00048	-5.07831	-0.0313391	-0.0313391	11	-0.00870532	0	0.00870532	0.000000000000000E+000	0.00870532	0.0000000E+000	0.000000000000000E+000	0.00508074
2	0	0	0	0	0	0	11.6484	-1.00004	-1.00056	-4.99749	-0.0378704	-0.0378704	11	-0.0105195	0	0.0105195	0.000000000000000E+000	0.0105195	0.0000000E+000	0.000000000000000E+000	0.00500027
2	0	0	0	0	0	0	12.9484	-1.00004	-1.00035	-5.00485	-0.0443491	-0.0443491	11	-0.0123192	0	0.0123192	0.000000000000000E+000	0.0123192	0.0000000E+000	0.000000000000000E+000	0.00500659
2	0	0	0	0	0	0	14.2484	-1.00004	-1.00046	-5.90637	-0.0517003	-0.0517003	11	-0.0143612	0	0.0143612	0.000000000000000E+000	0.0143612	0.0000000E+000	0.000000000000000E+000	0.00590909
2	0	0	0	0	0	0	15.5484	-1.00004	-1.00054	-5.98267	-0.0594372	-0.0594372	11	-0.0165103	0	0.0165103	0.000000000000000E+000	0.0165103	0.0000000E+000	0.000000000000000E+000	0.00598589
2	0	0	0	0	0	0	16.8484	-1.00004	-1.0004	-6.03509	-0.0672597	-0.0672597	11	-0.0186833	0	0.0186833	0.000000000000000E+000	0.0186833	0.0000000E+000	0.000000000000000E+000	0.00603752
2	0	0	0	0	0	0	18.1484	-1.00004	-1.00052	-6.11021	-0.075163	-0.075163	11	-0.0208786	0	0.0208786	0.000000000000000E+000	0.0208786	0.0000000E+000	0.000000000000000E+000	0.00611337
2	0	0	0	0	0	0	19.4484	-1.00004	-1.00058	-6.17444	-0.0831394	-0.0831394	11	-0.0230943	0	0.0230943	0.000000000000000E+000	0.0230943	0.0000000E+000	0.000000000000000E+000	0.00617799
2	0	0	0	0	0	0	20.7484	-1.00004	-1.00031	-6.26797	-0.0912406	-0.0912406	11	-0.0253446	0	0.0253446	0.000000000000000E+000	0.0253446	0.0000000E+000	0.000000000000000E+000	0.0062699
2	0	0	0	0	0	0	22.0484	-1.00004	-1.00054	-6.3219	-0.0994218	-0.0994218	11	-0.0276172	0	0.0276172	0.000000000000000E+000	0.0276172	0.0000000E+000	0.000000000000000E+000	0.0063253
2	0	0	0	0	0	0	23.3484	-1.00004	-1.0001	-6.37661	-0.107674	-0.107674	11	-0.0299094	0	0.0299094	0.000000000000000E+000	0.0299094	0.0000000E+000	0.000000000000000E+000	0.00637723
2	0	0	1	0	0	0	24.6484	-0.899992	-0.900251	-5.12433	-0.115758	-0.115758	11	-0.0321549	0	0.0321549	0.000000000000000E+000	0.0321549	0.0000000E+000	0.000000000000000E+000	0.00461318
2	0	0	1	0	0	0	25.9484	-0.899992	-0.900766	-5.33538	-0.122644	-0.122644	11	-0.0340678	0	0.0340678	0.000000000000000E+000	0.0340678	0.0000000E+000	0.000000000000000E+000	0.00480593
2	0	0	1	0	0	0	27.2484	-0.899992	-0.900327	-5.44021	-0.129648	-0.129648	11	-0.0360133	0	0.0360133	0.000000000000000E+000	0.0360133	0.0000000E+000	0.000000000000000E+000	0.00489797
2	0	0	1	0	0	0	28.5484	-0.899992	-0.900919	-5.51694	-0.136771	-0.136771	11	-0.037992	0	0.037992	0.000000000000000E+000	0.037992	0.0000000E+000	0.000000000000000E+000	0.00497032
2	0	0	1	0	0	0	29.8484	-0.899992	-0.900384	-5.57406	-0.143991	-0.143991	11	-0.0399974	0	0.0399974	0.000000000000000E+000	0.0399974	0.0000000E+000	0.000000000000000E+000	0.0050188
2	0	0	1	0	0	0	31.1484	-0.899992	-0.900556	-5.6012	-0.151255	-0.151255	11	-0.0420152	0	0.0420152	0.000000000000000E+000	0.0420152	0.0000000E+000	0.000000000000000E+000	0.00504419
2	0	0	1	0	0	0	32.4484	-0.899992	-0.900728	-5.63596	-0.15856	-0.15856	11	-0.0440444	0	0.0440444	0.000000000000000E+000	0.0440444	0.0000000E+000	0.000000000000000E+000	0.00507647
2	0	0	1	0	0	0	33.7484	-0.899992	-0.900308	-5.65019	-0.165893	-0.165893	11	-0.0460813	0	0.0460813	0.000000000000000E+000	0.0460813	0.0000000E+000	0.000000000000000E+000	0.00508691
2	0	0	1	0	0	0	35.0484	-0.899992	-0.900575	-5.68272	-0.173269	-0.173269	11	-0.0481303	0	0.0481303	0.000000000000000E+000	0.0481303	0.0000000E+000	0.000000000000000E+000	0.00511772
2	0	0	1	0	0	0	36.3484	-0.899992	-0.900365	-5.70515	-0.180667	-0.180667	11	-0.0501854	0	0.0501854	0.000000000000000E+000	0.0501854	0.0000000E+000	0.000000000000000E+000	0.00513672
2	0	0	0	0	0	0	37.6484	-0.800047	-0.800461	-4.34138	-0.187742	-0.187742	11	-0.0521507	0	0.0521507	0.000000000000000E+000	0.0521507	0.0000000E+000	0.000000000000000E+000	0.00347511
2	0	0	0	0	0	0	38.9484	-0.800047	-0.800423	-4.53106	-0.193568	-0.193568	11	-0.0537689	0	0.0537689	0.000000000000000E+000	0.0537689	0.0000000E+000	0.000000000000000E+000	0.00362676
2	0	0	0	0	0	0	40.2484	-0.800047	-0.800499	-4.57384	-0.199494	-0.199494	11	-0.0554149	0	0.0554149	0.000000000000000E+000	0.0554149	0.0000000E+000	0.000000000000000E+000	0.00366135
2	0	0	0	0	0	0	41.5484	-0.800047	-0.800403	-4.6098	-0.205462	-0.205462	11	-0.0570728	0	0.0570728	0.000000000000000E+000	0.0570728	0.0000000E+000	0.000000000000000E+000	0.0036897
2	0	0	0	0	0	0	42.8484	-0.800047	-0.800556	-4.6378	-0.211477	-0.211477	11	-0.0587437	0	0.0587437	0.000000000000000E+000	0.0587437	0.0000000E+000	0.000000000000000E+000	0.00371282
2	0	0	0	0	0	0	44.1484	-0.800047	-0.800594	-4.66218	-0.217525	-0.217525	11	-0.0604235	0	0.0604235	0.000000000000000E+000	0.0604235	0.0000000E+000	0.000000000000000E+000	0.00373252
2	0	0	0	0	0	0	45.4484	-0.800047	-0.800709	-4.67561	-0.223596	-0.223596	11	-0.0621099	0	0.0621099	0.000000000000000E+000	0.0621099	0.0000000E+000	0.000000000000000E+000	0.0037438
2	0	0	0	0	0	0	46.7484	-0.800047	-0.800155	-4.67769	-0.229674	-0.229674	11	-0.0637983	0	0.0637983	0.000000000000000E+000	0.0637983	0.0000000E+000	0.000000000000000E+000	0.00374288
2	0	0	0	0	0	0	48.0484	-0.800047	-0.800308	-4.69239	-0.235766	-0.235766	11	-0.0654905	0	0.0654905	0.000000000000000E+000	0.0654905	0.0000000E+000	0.000000000000000E+000	0.00375536
2	0	0	0	0	0	0	49.3484	-0.800047	-0.800442	-4.69803	-0.241869	-0.241869	11	-0.0671858	0	0.0671858	0.000000000000000E+000	0.0671858	0.0000000E+000	0.000000000000000E+000	0.0037605
2	0	0	1	0	0	0	50.6484	-0.700002	-0.700461	-3.43389	-0.247241	-0.247241	11	-0.0686781	0	0.0686781	0.000000000000000E+000	0.0686781	0.0000000E+000	0.000000000000000E+000	0.0024053
2	0	0	1	0	0	0	51.9484	-0.700002	-0.700556	-3.50326	-0.251766	-0.251766	11	-0.0699349	0	0.0699349	0.000000000000000E+000	0.0699349	0.0000000E+000	0.000000000000000E+000	0.00245423
2	0	0	1	0	0	0	53.2484	-0.700002	-0.700537	-3.52592	-0.256338	-0.256338	11	-0.0712049	0	0.0712049	0.000000000000000E+000	0.0712049	0.0000000E+000	0.000000000000000E+000	0.00247004
2	0	0	1	0	0	0	54.5484	-0.700002	-0.70048	-3.54347	-0.260933	-0.260933	11	-0.0724814	0	0.0724814	0.000000000000000E+000	0.0724814	0.0000000E+000	0.000000000000000E+000	0.00248213
2	0	0	1	0	0	0	55.8484	-0.700002	-0.700575	-3.54919	-0.265545	-0.265545	11	-0.0737624	0	0.0737624	0.000000000000000E+000	0.0737624	0.0000000E+000	0.000000000000000E+000	0.00248647
2	0	0	1	0	0	0	57.1484	-0.700002	-0.700403	-3.55106	-0.270162	-0.270162	11	-0.0750449	0	0.0750449	0.000000000000000E+000	0.0750449	0.0000000E+000	0.000000000000000E+000	0.00248717
2	0	0	1	0	0	0	58.4484	-0.700002	-0.700232	-3.54808	-0.274775	-0.274775	11	-0.0763265	0	0.0763265	0.000000000000000E+000	0.0763265	0.0000000E+000	0.000000000000000E+000	0.00248448
2	0	0	1	0	0	0	59.7484	-0.700002	-0.700518	-3.54941	-0.279389	-0.279389	11	-0.0776081	0	0.0776081	0.000000000000000E+000	0.0776081	0.0000000E+000	0.000000000000000E+000	0.00248642
2	0	0	1	0	0	0	61.0484	-0.700002	-0.700537	-3.5504	-0.284005	-0.284005	11	-0.0788904	0	0.0788904	0.000000000000000E+000	0.0788904	0.0000000E+000	0.000000000000000E+000	0.00248719
2	0	0	1	0	0	0	62.3484	-0.700002	-0.700461	-3.55308	-0.288622	-0.288622	11	-0.0801729	0	0.0801729	0.000000000000000E+000	0.0801729	0.0000000E+000	0.000000000000000E+000	0.00248879
2	0	0	1	0	0	0	63.6484	-0.700002	-0.700613	-3.5503	-0.293239	-0.293239	11	-0.0814552	0	0.0814552	0.000000000000000E+000	0.0814552	0.0000000E+000	0.000000000000000E+000	0.00248739
2	0	0	1	0	0	0	64.9484	-0.700002	-0.700575	-3.54817	-0.297853	-0.297853	11	-0.082737	0	0.082737	0.000000000000000E+000	0.082737	0.0000000E+000	0.000000000000000E+000	0.00248576
2	0	0	1	0	0	0	66.2484	-0.700002	-0.700499	-3.31809	-0.302307	-0.302307	11	-0.0839741	0	0.0839741	0.000000000000000E+000	0.0839741	0.0000000E+000	0.000000000000000E+000	0.00232432
2	0	0	1	0	0	0	67.5484	-0.700002	-0.700442	-3.29429	-0.306607	-0.306607	11	-0.0851685	0	0.0851685	0.000000000000000E+000	0.0851685	0.0000000E+000	0.000000000000000E+000	0.00230746
2	0	0	1	0	0	0	68.8484	-0.700002	-0.700422	-3.27618	-0.310874	-0.310874	11	-0.0863539	0	0.0863539	0.000000000000000E+000	0.0863539	0.0000000E+000	0.000000000000000E+000	0.00229471
2	0	0	1	0	0	0	70.1484	-0.700002	-0.700384	-3.26281	-0.315124	-0.315124	11	-0.0875343	0	0.0875343	0.000000000000000E+000	0.0875343	0.0000000E+000	0.000000000000000E+000	0.00228522
2	0	0	1	0	0	0	71.4484	-0.700002	-0.700403	-3.25522	-0.319361	-0.319361	11	-0.0887114	0	0.0887114	0.000000000000000E+000	0.0887114	0.0000000E+000	0.000000000000000E+000	0.00227996
2	0	0	1	0	0	0	72.7484	-0.700002	-0.700594	-3.24374	-0.323586	-0.323586	11	-0.0898849	0	0.0898849	0.000000000000000E+000	0.0898849	0.0000000E+000	0.000000000000000E+000	0.00227255
2	0	0	1	0	0	0	74.0484	-0.700002	-0.700518	-3.2442	-0.327803	-0.327803	11	-0.0910564	0	0.0910564	0.000000000000000E+000	0.0910564	0.0000000E+000	0.000000000000000E+000	0.00227262
2	0	0	1	0	0	0	75.3484	-0.700002	-0.70048	-3.2397	-0.332017	-0.332017	11	-0.0922269	0	0.0922269	0.000000000000000E+000	0.0922269	0.0000000E+000	0.000000000000000E+000	0.00226935
2	0	0	1	0	0	0	76.6484	-0.700002	-0.700461	-3.23926	-0.33623	-0.33623	11	-0.0933971	0	0.0933971	0.000000000000000E+000	0.0933971	0.0000000E+000	0.000000000000000E+000	0.00226898
2	0	0	1	0	0	0	77.9484	-0.700002	-0.700365	-3.23708	-0.34044	-0.34044	11	-0.0945666	0	0.0945666	0.000000000000000E+000	0.0945666	0.0000000E+000	0.000000000000000E+000	0.00226714
2	0	0	1	0	0	0	79.2484	-0.700002	-0.700461	-3.13543	-0.344604	-0.344604	11	-0.0957234	0	0.0957234	0.000000000000000E+000	0.0957234	0.0000000E+000	0.000000000000000E+000	0.00219625
2	0	0	1	0	0	0	80.5484	-0.700002	-0.700499	-3.06007	-0.348615	-0.348615	11	-0.0968374	0	0.0968374	0.000000000000000E+000	0.0968374	0.0000000E+000	0.000000000000000E+000	0.00214357
2	0	0	1	0	0	0	81.8484	-0.700002	-0.700537	-3.03774	-0.352575	-0.352575	11	-0.0979375	0	0.0979375	0.000000000000000E+000	0.0979375	0.0000000E+000	0.000000000000000E+000	0.00212805
2	0	0	1	0	0	0	83.1484	-0.700002	-0.700518	-3.02176	-0.356513	-0.356513	11	-0.0990314	0	0.0990314	0.000000000000000E+000	0.0990314	0.0000000E+000	0.000000000000000E+000	0.00211679
2	0	0	1	0	0	0	84.4484	-0.700002	-0.700461	-3.01411	-0.360436	-0.360436	11	-0.100121	0	0.100121	0.000000000000000E+000	0.100121	0.0000000E+000	0.000000000000000E+000	0.00211127
2	0	0	1	0	0	0	85.7484	-0.700002	-0.700518	-3.00588	-0.364347	-0.364347	11	-0.101208	0	0.101208	0.000000000000000E+000	0.101208	0.0000000E+000	0.000000000000000E+000	0.00210567
2	0	0	1	0	0	0	87.0484	-0.700002	-0.70048	-3.00432	-0.368256	-0.368256	11	-0.102293	0	0.102293	0.000000000000000E+000	0.102293	0.0000000E+000	0.000000000000000E+000	0.00210446
2	0	0	1	0	0	0	88.3484	-0.700002	-0.700556	-3.00115	-0.372159	-0.372159	11	-0.103377	0	0.103377	0.000000000000000E+000	0.103377	0.0000000E+000	0.000000000000000E+000	0.00210248
2	0	0	1	0	0	0	89.6484	-0.700002	-0.700442	-2.99535	-0.376056	-0.376056	11	-0.10446	0	0.10446	0.000000000000000E+000	0.10446	0.0000000E+000	0.000000000000000E+000	0.00209807
2	0	0	1	0	0	0	90.9484	-0.700002	-0.700613	-3.00003	-0.379951	-0.379951	11	-0.105542	0	0.105542	0.000000000000000E+000	0.105542	0.0000000E+000	0.000000000000000E+000	0.00210186
2	0	0	1	0	0	0	92.2484	-0.700002	-0.700575	-2.99195	-0.383846	-0.383846	11	-0.106624	0	0.106624	0.000000000000000E+000	0.106624	0.0000000E+000	0.000000000000000E+000	0.00209609
2	0	0	1	0	0	0	93.5484	-0.700002	-0.700327	-2.99	-0.387734	-0.387734	11	-0.107704	0	0.107704	0.000000000000000E+000	0.107704	0.0000000E+000	0.000000000000000E+000	0.00209398
2	0	0	1	0	0	0	94.8484	-0.700002	-0.700537	-2.98645	-0.391619	-0.391619	11	-0.108783	0	0.108783	0.000000000000000E+000	0.108783	0.0000000E+000	0.000000000000000E+000	0.00209212
2	0	0	1	0	0	0	96.1484	-0.700002	-0.700422	-2.98312	-0.395498	-0.395498	11	-0.109861	0	0.109861	0.000000000000000E+000	0.109861	0.0000000E+000	0.000000000000000E+000	0.00208944
2	0	0	1	0	0	0	97.4484	-0.700002	-0.700594	-2.83028	-0.399298	-0.399298	11	-0.110916	0	0.110916	0.000000000000000E+000	0.110916	0.0000000E+000	0.000000000000000E+000	0.00198288
2	0	0	1	0	0	0	98.7484	-0.700002	-0.700461	-2.70614	-0.402879	-0.402879	11	-0.111911	0	0.111911	0.000000000000000E+000	0.111911	0.0000000E+000	0.000000000000000E+000	0.00189554
2	0	0	1	0	0	0	100.048	-0.700002	-0.700537	-2.64473	-0.406354	-0.406354	11	-0.112876	0	0.112876	0.000000000000000E+000	0.112876	0.0000000E+000	0.000000000000000E+000	0.00185273
2	0	0	1	0	0	0	101.348	-0.700002	-0.700403	-2.61743	-0.409773	-0.409773	11	-0.113826	0	0.113826	0.000000000000000E+000	0.113826	0.0000000E+000	0.000000000000000E+000	0.00183325
2	0	0	1	0	0	0	102.648	-0.700002	-0.700594	-2.60171	-0.413163	-0.413163	11	-0.114767	0	0.114767	0.000000000000000E+000	0.114767	0.0000000E+000	0.000000000000000E+000	0.00182274
2	0	0	1	0	0	0	103.948	-0.700002	-0.700403	-2.58215	-0.416528	-0.416528	11	-0.115702	0	0.115702	0.000000000000000E+000	0.115702	0.0000000E+000	0.000000000000000E+000	0.00180855
2	0	0	1	0	0	0	105.248	-0.700002	-0.70048	-2.5657	-0.419873	-0.419873	11	-0.116631	0	0.116631	0.000000000000000E+000	0.116631	0.0000000E+000	0.000000000000000E+000	0.00179722
2	0	0	1	0	0	0	106.548	-0.700002	-0.700575	-2.54924	-0.423194	-0.423194	11	-0.117554	0	0.117554	0.000000000000000E+000	0.117554	0.0000000E+000	0.000000000000000E+000	0.00178593
2	0	0	1	0	0	0	107.848	-0.700002	-0.700613	-2.54695	-0.426505	-0.426505	11	-0.118474	0	0.118474	0.000000000000000E+000	0.118474	0.0000000E+000	0.000000000000000E+000	0.00178443
2	0	0	1	0	0	0	109.148	-0.700002	-0.700499	-2.54509	-0.429815	-0.429815	11	-0.119393	0	0.119393	0.000000000000000E+000	0.119393	0.0000000E+000	0.000000000000000E+000	0.00178283
2	0	0	1	0	0	0	110.448	-0.700002	-0.700499	-2.53867	-0.433123	-0.433123	11	-0.120312	0	0.120312	0.000000000000000E+000	0.120312	0.0000000E+000	0.000000000000000E+000	0.00177833
2	0	0	1	0	0	0	111.748	-0.700002	-0.70048	-2.54027	-0.436425	-0.436425	11	-0.121229	0	0.121229	0.000000000000000E+000	0.121229	0.0000000E+000	0.000000000000000E+000	0.00177941
2	0	0	1	0	0	0	113.048	-0.700002	-0.700442	-2.53678	-0.439724	-0.439724	11	-0.122146	0	0.122146	0.000000000000000E+000	0.122146	0.0000000E+000	0.000000000000000E+000	0.00177687
2	0	0	1	0	0	0	114.348	-0.700002	-0.70048	-2.5304	-0.443016	-0.443016	11	-0.12306	0	0.12306	0.000000000000000E+000	0.12306	0.0000000E+000	0.000000000000000E+000	0.0017725
2	0	0	1	0	0	0	115.648	-0.700002	-0.700403	-2.42953	-0.44625	-0.44625	11	-0.123958	0	0.123958	0.000000000000000E+000	0.123958	0.0000000E+000	0.000000000000000E+000	0.00170165
2	0	0	1	0	0	0	116.948	-0.700002	-0.700442	-2.36939	-0.449361	-0.449361	11	-0.124822	0	0.124822	0.000000000000000E+000	0.124822	0.0000000E+000	0.000000000000000E+000	0.00165962
2	0	0	1	0	0	0	118.248	-0.700002	-0.700499	-2.34015	-0.452413	-0.452413	11	-0.12567	0	0.12567	0.000000000000000E+000	0.12567	0.0000000E+000	0.000000000000000E+000	0.00163927
2	0	0	1	0	0	0	119.548	-0.700002	-0.700518	-2.31485	-0.45544	-0.45544	11	-0.126511	0	0.126511	0.000000000000000E+000	0.126511	0.0000000E+000	0.000000000000000E+000	0.0016216
2	0	0	1	0	0	0	120.848	-0.700002	-0.700403	-2.29725	-0.458438	-0.458438	11	-0.127344	0	0.127344	0.000000000000000E+000	0.127344	0.0000000E+000	0.000000000000000E+000	0.001609
2	0	0	1	0	0	0	122.148	-0.700002	-0.700442	-2.29193	-0.461418	-0.461418	11	-0.128172	0	0.128172	0.000000000000000E+000	0.128172	0.0000000E+000	0.000000000000000E+000	0.00160536
2	0	0	1	0	0	0	123.448	-0.700002	-0.700442	-2.28278	-0.464387	-0.464387	11	-0.128996	0	0.128996	0.000000000000000E+000	0.128996	0.0000000E+000	0.000000000000000E+000	0.00159895
2	0	0	1	0	0	0	124.748	-0.700002	-0.700346	-2.27368	-0.467349	-0.467349	11	-0.129819	0	0.129819	0.000000000000000E+000	0.129819	0.0000000E+000	0.000000000000000E+000	0.00159236
2	0	0	1	0	0	0	126.048	-0.700002	-0.700537	-2.27074	-0.470304	-0.470304	11	-0.13064	0	0.13064	0.000000000000000E+000	0.13064	0.0000000E+000	0.000000000000000E+000	0.00159074
2	0	0	1	0	0	0	127.348	-0.700002	-0.700575	-2.2599	-0.473245	-0.473245	11	-0.131457	0	0.131457	0.000000000000000E+000	0.131457	0.0000000E+000	0.000000000000000E+000	0.00158323
2	0	0	1	0	0	0	128.648	-0.700002	-0.700518	-2.24996	-0.476177	-0.476177	11	-0.132271	0	0.132271	0.000000000000000E+000	0.132271	0.0000000E+000	0.000000000000000E+000	0.00157613
2	0	0	1	0	0	0	129.948	-0.700002	-0.70048	-2.25038	-0.479108	-0.479108	11	-0.133086	0	0.133086	0.000000000000000E+000	0.133086	0.0000000E+000	0.000000000000000E+000	0.00157634
2	0	0	1	0	0	0	131.248	-0.700002	-0.70048	-2.25844	-0.482046	-0.482046	11	-0.133902	0	0.133902	0.000000000000000E+000	0.133902	0.0000000E+000	0.000000000000000E+000	0.00158199
2	0	0	1	0	0	0	132.548	-0.700002	-0.700499	-2.19286	-0.484955	-0.484955	11	-0.13471	0	0.13471	0.000000000000000E+000	0.13471	0.0000000E+000	0.000000000000000E+000	0.0015361
2	0	0	1	0	0	0	133.848	-0.700002	-0.700499	-2.11419	-0.487741	-0.487741	11	-0.135484	0	0.135484	0.000000000000000E+000	0.135484	0.0000000E+000	0.000000000000000E+000	0.00148099
2	0	0	1	0	0	0	135.148	-0.700002	-0.700461	-2.07473	-0.490458	-0.490458	11	-0.136238	0	0.136238	0.000000000000000E+000	0.136238	0.0000000E+000	0.000000000000000E+000	0.00145326
2	0	0	1	0	0	0	136.448	-0.700002	-0.700422	-2.04861	-0.493134	-0.493134	11	-0.136982	0	0.136982	0.000000000000000E+000	0.136982	0.0000000E+000	0.000000000000000E+000	0.00143489
2	0	0	1	0	0	0	137.748	-0.700002	-0.700461	-2.03959	-0.495791	-0.495791	11	-0.13772	0	0.13772	0.000000000000000E+000	0.13772	0.0000000E+000	0.000000000000000E+000	0.00142865
2	0	0	1	0	0	0	139.048	-0.700002	-0.700499	-2.0159	-0.498422	-0.498422	11	-0.13845	0	0.13845	0.000000000000000E+000	0.13845	0.0000000E+000	0.000000000000000E+000	0.00141214
2	0	0	1	0	0	0	140.348	-0.700002	-0.700422	-2.00478	-0.501031	-0.501031	11	-0.139175	0	0.139175	0.000000000000000E+000	0.139175	0.0000000E+000	0.000000000000000E+000	0.00140419
2	0	0	1	0	0	0	141.648	-0.700002	-0.700461	-1.99496	-0.503628	-0.503628	11	-0.139897	0	0.139897	0.000000000000000E+000	0.139897	0.0000000E+000	0.000000000000000E+000	0.00139739
2	0	0	1	0	0	0	142.948	-0.700002	-0.700461	-1.99013	-0.506214	-0.506214	11	-0.140615	0	0.140615	0.000000000000000E+000	0.140615	0.0000000E+000	0.000000000000000E+000	0.00139401
2	0	0	1	0	0	0	144.248	-0.700002	-0.700442	-1.97252	-0.508788	-0.508788	11	-0.14133	0	0.14133	0.000000000000000E+000	0.14133	0.0000000E+000	0.000000000000000E+000	0.00138163
2	0	0	1	0	0	0	145.548	-0.700002	-0.700556	-1.96838	-0.511348	-0.511348	11	-0.142041	0	0.142041	0.000000000000000E+000	0.142041	0.0000000E+000	0.000000000000000E+000	0.00137896
2	0	0	1	0	0	0	146.848	-0.700002	-0.70048	-1.95967	-0.513901	-0.513901	11	-0.14275	0	0.14275	0.000000000000000E+000	0.14275	0.0000000E+000	0.000000000000000E+000	0.00137271
2	0	0	1	0	0	0	148.148	-0.700002	-0.700442	-1.94984	-0.516444	-0.516444	11	-0.143457	0	0.143457	0.000000000000000E+000	0.143457	0.0000000E+000	0.000000000000000E+000	0.00136575
2	0	0	1	0	0	0	149.448	-0.700002	-0.70048	-1.93664	-0.518973	-0.518973	11	-0.144159	0	0.144159	0.000000000000000E+000	0.144159	0.0000000E+000	0.000000000000000E+000	0.00135658
2	0	0	1	0	0	0	150.748	-0.700002	-0.700422	-1.93052	-0.521495	-0.521495	11	-0.14486	0	0.14486	0.000000000000000E+000	0.14486	0.0000000E+000	0.000000000000000E+000	0.00135218
2	0	0	1	0	0	0	152.048	-0.700002	-0.70048	-1.92924	-0.524015	-0.524015	11	-0.14556	0	0.14556	0.000000000000000E+000	0.14556	0.0000000E+000	0.000000000000000E+000	0.00135139
2	0	0	1	0	0	0	153.348	-0.700002	-0.700537	-1.92605	-0.526528	-0.526528	11	-0.146258	0	0.146258	0.000000000000000E+000	0.146258	0.0000000E+000	0.000000000000000E+000	0.00134927
2	0	0	1	0	0	0	154.648	-0.700002	-0.700403	-1.92097	-0.529036	-0.529036	11	-0.146954	0	0.146954	0.000000000000000E+000	0.146954	0.0000000E+000	0.000000000000000E+000	0.00134545
2	0	0	1	0	0	0	155.948	-0.700002	-0.700556	-1.91941	-0.531536	-0.531536	11	-0.147649	0	0.147649	0.000000000000000E+000	0.147649	0.0000000E+000	0.000000000000000E+000	0.00134465
2	0	0	1	0	0	0	157.248	-0.700002	-0.700461	-1.91221	-0.534033	-0.534033	11	-0.148343	0	0.148343	0.000000000000000E+000	0.148343	0.0000000E+000	0.000000000000000E+000	0.00133943
2	0	0	1	0	0	0	158.548	-0.700002	-0.700442	-1.90686	-0.536525	-0.536525	11	-0.149035	0	0.149035	0.000000000000000E+000	0.149035	0.0000000E+000	0.000000000000000E+000	0.00133564
2	0	0	1	0	0	0	159.848	-0.700002	-0.700537	-1.90646	-0.53901	-0.53901	11	-0.149725	0	0.149725	0.000000000000000E+000	0.149725	0.0000000E+000	0.000000000000000E+000	0.00133555
2	0	0	1	0	0	0	161.148	-0.700002	-0.700442	-1.90427	-0.541492	-0.541492	11	-0.150415	0	0.150415	0.000000000000000E+000	0.150415	0.0000000E+000	0.000000000000000E+000	0.00133383
2	0	0	1	0	0	0	162.448	-0.700002	-0.700461	-1.90034	-0.543973	-0.543973	11	-0.151104	0	0.151104	0.000000000000000E+000	0.151104	0.0000000E+000	0.000000000000000E+000	0.00133111
2	0	0	1	0	0	0	163.748	-0.700002	-0.700499	-1.90592	-0.546452	-0.546452	11	-0.151792	0	0.151792	0.000000000000000E+000	0.151792	0.0000000E+000	0.000000000000000E+000	0.0013351
2	0	0	1	0	0	0	165.048	-0.700002	-0.70048	-1.90869	-0.548931	-0.548931	11	-0.152481	0	0.152481	0.000000000000000E+000	0.152481	0.0000000E+000	0.000000000000000E+000	0.001337
2	0	0	1	0	0	0	166.348	-0.700002	-0.700461	-1.89215	-0.551402	-0.551402	11	-0.153167	0	0.153167	0.000000000000000E+000	0.153167	0.0000000E+000	0.000000000000000E+000	0.00132538
2	0	0	1	0	0	0	167.648	-0.700002	-0.700327	-1.84329	-0.55382	-0.55382	11	-0.153839	0	0.153839	0.000000000000000E+000	0.153839	0.0000000E+000	0.000000000000000E+000	0.00129091
2	0	0	1	0	0	0	168.948	-0.700002	-0.700499	-1.7994	-0.556184	-0.556184	11	-0.154496	0	0.154496	0.000000000000000E+000	0.154496	0.0000000E+000	0.000000000000000E+000	0.00126048
2	0	0	1	0	0	0	170.248	-0.700002	-0.700422	-1.77729	-0.558506	-0.558506	11	-0.155141	0	0.155141	0.000000000000000E+000	0.155141	0.0000000E+000	0.000000000000000E+000	0.00124486
2	0	0	1	0	0	0	171.548	-0.700002	-0.700442	-1.75691	-0.560808	-0.560808	11	-0.15578	0	0.15578	0.000000000000000E+000	0.15578	0.0000000E+000	0.000000000000000E+000	0.00123061
2	0	0	1	0	0	0	172.848	-0.700002	-0.700575	-1.75299	-0.563094	-0.563094	11	-0.156415	0	0.156415	0.000000000000000E+000	0.156415	0.0000000E+000	0.000000000000000E+000	0.0012281
2	0	0	1	0	0	0	174.148	-0.700002	-0.70048	-1.74436	-0.565366	-0.565366	11	-0.157046	0	0.157046	0.000000000000000E+000	0.157046	0.0000000E+000	0.000000000000000E+000	0.00122189
2	0	0	1	0	0	0	175.448	-0.700002	-0.700537	-1.72977	-0.567623	-0.567623	11	-0.157673	0	0.157673	0.000000000000000E+000	0.157673	0.0000000E+000	0.000000000000000E+000	0.00121177
2	0	0	1	0	0	0	176.748	-0.700002	-0.700518	-1.72549	-0.569867	-0.569867	11	-0.158296	0	0.158296	0.000000000000000E+000	0.158296	0.0000000E+000	0.000000000000000E+000	0.00120874
2	0	0	1	0	0	0	178.048	-0.700002	-0.700499	-1.72789	-0.572109	-0.572109	11	-0.158919	0	0.158919	0.000000000000000E+000	0.158919	0.0000000E+000	0.000000000000000E+000	0.00121039
2	0	0	1	0	0	0	179.348	-0.700002	-0.700594	-1.7214	-0.574348	-0.574348	11	-0.159541	0	0.159541	0.000000000000000E+000	0.159541	0.0000000E+000	0.000000000000000E+000	0.001206
2	0	0	1	0	0	0	180.648	-0.700002	-0.700537	-1.71679	-0.576584	-0.576584	11	-0.160162	0	0.160162	0.000000000000000E+000	0.160162	0.0000000E+000	0.000000000000000E+000	0.00120267
2	0	0	1	0	0	0	181.948	-0.700002	-0.70048	-1.70659	-0.578808	-0.578808	11	-0.16078	0	0.16078	0.000000000000000E+000	0.16078	0.0000000E+000	0.000000000000000E+000	0.00119543
2	0	0	1	0	0	0	183.248	-0.700002	-0.700518	-1.69086	-0.581024	-0.581024	11	-0.161396	0	0.161396	0.000000000000000E+000	0.161396	0.0000000E+000	0.000000000000000E+000	0.00118448
2	0	0	1	0	0	0	184.548	-0.700002	-0.70048	-1.69094	-0.583228	-0.583228	11	-0.162008	0	0.162008	0.000000000000000E+000	0.162008	0.0000000E+000	0.000000000000000E+000	0.00118447
2	0	0	1	0	0	0	185.848	-0.700002	-0.700499	-1.69787	-0.585428	-0.585428	11	-0.162619	0	0.162619	0.000000000000000E+000	0.162619	0.0000000E+000	0.000000000000000E+000	0.00118935
2	0	0	1	0	0	0	187.148	-0.700002	-0.700499	-1.6988	-0.587633	-0.587633	11	-0.163231	0	0.163231	0.000000000000000E+000	0.163231	0.0000000E+000	0.000000000000000E+000	0.00119
2	0	0	1	0	0	0	188.448	-0.700002	-0.700499	-1.70267	-0.589844	-0.589844	11	-0.163846	0	0.163846	0.000000000000000E+000	0.163846	0.0000000E+000	0.000000000000000E+000	0.00119272
2	0	0	1	0	0	0	189.748	-0.700002	-0.700518	-1.69455	-0.59205	-0.59205	11	-0.164458	0	0.164458	0.000000000000000E+000	0.164458	0.0000000E+000	0.000000000000000E+000	0.00118706
2	0	0	1	0	0	0	191.048	-0.700002	-0.70048	-1.69261	-0.594246	-0.594246	11	-0.165068	0	0.165068	0.000000000000000E+000	0.165068	0.0000000E+000	0.000000000000000E+000	0.00118564
2	0	0	1	0	0	0	192.348	-0.700002	-0.700422	-1.69169	-0.596444	-0.596444	11	-0.165679	0	0.165679	0.000000000000000E+000	0.165679	0.0000000E+000	0.000000000000000E+000	0.0011849
2	0	0	1	0	0	0	193.648	-0.700002	-0.700384	-1.69883	-0.598641	-0.598641	11	-0.166289	0	0.166289	0.000000000000000E+000	0.166289	0.0000000E+000	0.000000000000000E+000	0.00118984
2	0	0	1	0	0	0	194.948	-0.700002	-0.700499	-1.73871	-0.600878	-0.600878	11	-0.16691	0	0.16691	0.000000000000000E+000	0.16691	0.0000000E+000	0.000000000000000E+000	0.00121796
2	0	0	1	0	0	0	196.248	-0.700002	-0.700499	-1.76894	-0.603172	-0.603172	11	-0.167548	0	0.167548	0.000000000000000E+000	0.167548	0.0000000E+000	0.000000000000000E+000	0.00123914
2	0	0	1	0	0	0	197.548	-0.700002	-0.700518	-1.78893	-0.605495	-0.605495	11	-0.168193	0	0.168193	0.000000000000000E+000	0.168193	0.0000000E+000	0.000000000000000E+000	0.00125318
2	0	0	1	0	0	0	198.848	-0.700002	-0.700403	-1.79554	-0.607833	-0.607833	11	-0.168842	0	0.168842	0.000000000000000E+000	0.168842	0.0000000E+000	0.000000000000000E+000	0.0012576
2	0	0	1	0	0	0	200.148	-0.700002	-0.700403	-1.80554	-0.610182	-0.610182	11	-0.169495	0	0.169495	0.000000000000000E+000	0.169495	0.0000000E+000	0.000000000000000E+000	0.0012646
2	0	0	1	0	0	0	201.448	-0.700002	-0.700537	-1.80564	-0.612536	-0.612536	11	-0.170149	0	0.170149	0.000000000000000E+000	0.170149	0.0000000E+000	0.000000000000000E+000	0.00126492
2	0	0	1	0	0	0	202.748	-0.700002	-0.700537	-1.80179	-0.614887	-0.614887	11	-0.170802	0	0.170802	0.000000000000000E+000	0.170802	0.0000000E+000	0.000000000000000E+000	0.00126222
2	0	0	1	0	0	0	204.048	-0.700002	-0.700442	-1.80098	-0.617236	-0.617236	11	-0.171454	0	0.171454	0.000000000000000E+000	0.171454	0.0000000E+000	0.000000000000000E+000	0.00126148
2	0	0	1	0	0	0	205.348	-0.700002	-0.700403	-1.79707	-0.619581	-0.619581	11	-0.172106	0	0.172106	0.000000000000000E+000	0.172106	0.0000000E+000	0.000000000000000E+000	0.00125867
2	0	0	1	0	0	0	206.648	-0.700002	-0.700461	-1.82438	-0.621935	-0.621935	11	-0.17276	0	0.17276	0.000000000000000E+000	0.17276	0.0000000E+000	0.000000000000000E+000	0.0012779
2	0	0	1	0	0	0	207.948	-0.700002	-0.700556	-1.82399	-0.624313	-0.624313	11	-0.17342	0	0.17342	0.000000000000000E+000	0.17342	0.0000000E+000	0.000000000000000E+000	0.00127781
2	0	0	1	0	0	0	209.248	-0.700002	-0.70048	-1.85287	-0.626697	-0.626697	11	-0.174082	0	0.174082	0.000000000000000E+000	0.174082	0.0000000E+000	0.000000000000000E+000	0.0012979
2	0	0	1	0	0	0	210.548	-0.700002	-0.700613	-1.85943	-0.629113	-0.629113	11	-0.174754	0	0.174754	0.000000000000000E+000	0.174754	0.0000000E+000	0.000000000000000E+000	0.00130274
2	0	0	1	0	0	0	211.848	-0.700002	-0.700537	-1.8524	-0.631521	-0.631521	11	-0.175423	0	0.175423	0.000000000000000E+000	0.175423	0.0000000E+000	0.000000000000000E+000	0.00129768
2	0	0	1	0	0	0	213.148	-0.700002	-0.700499	-1.84804	-0.633924	-0.633924	11	-0.17609	0	0.17609	0.000000000000000E+000	0.17609	0.0000000E+000	0.000000000000000E+000	0.00129455
2	0	0	1	0	0	0	214.448	-0.700002	-0.700575	-1.84364	-0.636323	-0.636323	11	-0.176756	0	0.176756	0.000000000000000E+000	0.176756	0.0000000E+000	0.000000000000000E+000	0.00129161
2	0	0	1	0	0	0	215.748	-0.700002	-0.700518	-1.84152	-0.638715	-0.638715	11	-0.177421	0	0.177421	0.000000000000000E+000	0.177421	0.0000000E+000	0.000000000000000E+000	0.00129002
2	0	0	1	0	0	0	217.048	-0.700002	-0.700461	-1.84805	-0.641113	-0.641113	11	-0.178087	0	0.178087	0.000000000000000E+000	0.178087	0.0000000E+000	0.000000000000000E+000	0.00129449
2	0	0	1	0	0	0	218.348	-0.700002	-0.700403	-1.84782	-0.643516	-0.643516	11	-0.178755	0	0.178755	0.000000000000000E+000	0.178755	0.0000000E+000	0.000000000000000E+000	0.00129422
2	0	0	1	0	0	0	219.648	-0.700002	-0.700499	-1.84308	-0.645911	-0.645911	11	-0.17942	0	0.17942	0.000000000000000E+000	0.17942	0.0000000E+000	0.000000000000000E+000	0.00129107
2	0	0	1	0	0	0	220.948	-0.700002	-0.700442	-1.8454	-0.648304	-0.648304	11	-0.180084	0	0.180084	0.000000000000000E+000	0.180084	0.0000000E+000	0.000000000000000E+000	0.0012926
2	0	0	1	0	0	0	222.248	-0.700002	-0.700575	-1.84336	-0.650697	-0.650697	11	-0.180749	0	0.180749	0.000000000000000E+000	0.180749	0.0000000E+000	0.000000000000000E+000	0.00129141
2	0	0	1	0	0	0	223.548	-0.700002	-0.700556	-1.84124	-0.653087	-0.653087	11	-0.181413	0	0.181413	0.000000000000000E+000	0.181413	0.0000000E+000	0.000000000000000E+000	0.00128989
2	0	0	1	0	0	0	224.848	-0.700002	-0.700422	-1.85383	-0.655483	-0.655483	11	-0.182079	0	0.182079	0.000000000000000E+000	0.182079	0.0000000E+000	0.000000000000000E+000	0.00129846
2	0	0	1	0	0	0	226.148	-0.700002	-0.700442	-1.85801	-0.657891	-0.657891	11	-0.182747	0	0.182747	0.000000000000000E+000	0.182747	0.0000000E+000	0.000000000000000E+000	0.00130142
2	0	0	1	0	0	0	227.448	-0.700002	-0.70048	-1.85597	-0.660296	-0.660296	11	-0.183416	0	0.183416	0.000000000000000E+000	0.183416	0.0000000E+000	0.000000000000000E+000	0.00130007
2	0	0	1	0	0	0	228.748	-0.700002	-0.700461	-1.85703	-0.662705	-0.662705	11	-0.184085	0	0.184085	0.000000000000000E+000	0.184085	0.0000000E+000	0.000000000000000E+000	0.00130078
2	0	0	1	0	0	0	230.048	-0.700002	-0.700499	-1.85168	-0.66511	-0.66511	11	-0.184753	0	0.184753	0.000000000000000E+000	0.184753	0.0000000E+000	0.000000000000000E+000	0.0012971
2	0	0	1	0	0	0	231.348	-0.700002	-0.700461	-1.8446	-0.667507	-0.667507	11	-0.185418	0	0.185418	0.000000000000000E+000	0.185418	0.0000000E+000	0.000000000000000E+000	0.00129207
2	0	0	1	0	0	0	232.648	-0.700002	-0.700537	-1.84524	-0.669902	-0.669902	11	-0.186084	0	0.186084	0.000000000000000E+000	0.186084	0.0000000E+000	0.000000000000000E+000	0.00129266
2	0	0	1	0	0	0	233.948	-0.700002	-0.700537	-1.8393	-0.672292	-0.672292	11	-0.186748	0	0.186748	0.000000000000000E+000	0.186748	0.0000000E+000	0.000000000000000E+000	0.0012885
2	0	0	1	0	0	0	235.248	-0.700002	-0.700384	-1.91793	-0.674709	-0.674709	11	-0.187419	0	0.187419	0.000000000000000E+000	0.187419	0.0000000E+000	0.000000000000000E+000	0.00134329
2	0	0	1	0	0	0	236.548	-0.700002	-0.700403	-1.98267	-0.677249	-0.677249	11	-0.188125	0	0.188125	0.000000000000000E+000	0.188125	0.0000000E+000	0.000000000000000E+000	0.00138867
2	0	0	1	0	0	0	237.848	-0.700002	-0.700384	-2.01232	-0.679854	-0.679854	11	-0.188848	0	0.188848	0.000000000000000E+000	0.188848	0.0000000E+000	0.000000000000000E+000	0.0014094
2	0	0	1	0	0	0	239.148	-0.700002	-0.700327	-2.03443	-0.682489	-0.682489	11	-0.18958	0	0.18958	0.000000000000000E+000	0.18958	0.0000000E+000	0.000000000000000E+000	0.00142477
2	0	0	1	0	0	0	240.448	-0.700002	-0.700518	-2.04872	-0.685142	-0.685142	11	-0.190317	0	0.190317	0.000000000000000E+000	0.190317	0.0000000E+000	0.000000000000000E+000	0.00143517
2	0	0	1	0	0	0	241.748	-0.700002	-0.700518	-2.05332	-0.687804	-0.687804	11	-0.191057	0	0.191057	0.000000000000000E+000	0.191057	0.0000000E+000	0.000000000000000E+000	0.00143839
2	0	0	1	0	0	0	243.048	-0.700002	-0.700461	-2.0522	-0.690478	-0.690478	11	-0.1918	0	0.1918	0.000000000000000E+000	0.1918	0.0000000E+000	0.000000000000000E+000	0.00143749
2	0	0	1	0	0	0	244.348	-0.700002	-0.700403	-2.06139	-0.693155	-0.693155	11	-0.192543	0	0.192543	0.000000000000000E+000	0.192543	0.0000000E+000	0.000000000000000E+000	0.0014438
2	0	0	1	0	0	0	245.648	-0.700002	-0.700575	-2.06565	-0.695834	-0.695834	11	-0.193287	0	0.193287	0.000000000000000E+000	0.193287	0.0000000E+000	0.000000000000000E+000	0.00144714
2	0	0	1	0	0	0	246.948	-0.700002	-0.700537	-2.06064	-0.698516	-0.698516	11	-0.194032	0	0.194032	0.000000000000000E+000	0.194032	0.0000000E+000	0.000000000000000E+000	0.00144356
2	0	0	1	0	0	0	248.248	-0.700002	-0.70048	-2.05643	-0.701197	-0.701197	11	-0.194777	0	0.194777	0.000000000000000E+000	0.194777	0.0000000E+000	0.000000000000000E+000	0.00144049
2	0	0	1	0	0	0	249.548	-0.700002	-0.700499	-2.06708	-0.703879	-0.703879	11	-0.195522	0	0.195522	0.000000000000000E+000	0.195522	0.0000000E+000	0.000000000000000E+000	0.00144799
2	0	0	1	0	0	0	250.848	-0.700002	-0.700556	-2.0625	-0.706555	-0.706555	11	-0.196265	0	0.196265	0.000000000000000E+000	0.196265	0.0000000E+000	0.000000000000000E+000	0.0014449
2	0	0	1	0	0	0	252.148	-0.700002	-0.700556	-2.05684	-0.709235	-0.709235	11	-0.19701	0	0.19701	0.000000000000000E+000	0.19701	0.0000000E+000	0.000000000000000E+000	0.00144093
2	0	0	1	0	0	0	253.448	-0.700002	-0.700537	-2.05911	-0.711913	-0.711913	11	-0.197754	0	0.197754	0.000000000000000E+000	0.197754	0.0000000E+000	0.000000000000000E+000	0.00144248
2	0	0	1	0	0	0	254.748	-0.700002	-0.700384	-2.0701	-0.714595	-0.714595	11	-0.198499	0	0.198499	0.000000000000000E+000	0.198499	0.0000000E+000	0.000000000000000E+000	0.00144987
2	0	0	1	0	0	0	256.048	-0.700002	-0.700499	-2.07061	-0.717284	-0.717284	11	-0.199246	0	0.199246	0.000000000000000E+000	0.199246	0.0000000E+000	0.000000000000000E+000	0.00145046
2	0	0	1	0	0	0	257.348	-0.700002	-0.70048	-2.08494	-0.719976	-0.719976	11	-0.199993	0	0.199993	0.000000000000000E+000	0.199993	0.0000000E+000	0.000000000000000E+000	0.00146046
2	0	0	1	0	0	0	258.648	-0.700002	-0.700556	-2.20736	-0.722778	-0.722778	11	-0.200772	0	0.200772	0.000000000000000E+000	0.200772	0.0000000E+000	0.000000000000000E+000	0.00154638
2	0	0	1	0	0	0	259.948	-0.700002	-0.700652	-2.2587	-0.725685	-0.725685	11	-0.201579	0	0.201579	0.000000000000000E+000	0.201579	0.0000000E+000	0.000000000000000E+000	0.00158256
2	0	0	1	0	0	0	261.248	-0.700002	-0.700461	-2.27738	-0.728633	-0.728633	11	-0.202398	0	0.202398	0.000000000000000E+000	0.202398	0.0000000E+000	0.000000000000000E+000	0.00159522
2	0	0	1	0	0	0	262.548	-0.700002	-0.700461	-2.2993	-0.731611	-0.731611	11	-0.203225	0	0.203225	0.000000000000000E+000	0.203225	0.0000000E+000	0.000000000000000E+000	0.00161057
2	0	0	1	0	0	0	263.848	-0.700002	-0.700365	-2.30797	-0.734609	-0.734609	11	-0.204058	0	0.204058	0.000000000000000E+000	0.204058	0.0000000E+000	0.000000000000000E+000	0.00161642
2	0	0	1	0	0	0	265.148	-0.700002	-0.70048	-2.32422	-0.737624	-0.737624	11	-0.204896	0	0.204896	0.000000000000000E+000	0.204896	0.0000000E+000	0.000000000000000E+000	0.00162807
2	0	0	1	0	0	0	266.448	-0.700002	-0.700613	-2.33833	-0.740652	-0.740652	11	-0.205737	0	0.205737	0.000000000000000E+000	0.205737	0.0000000E+000	0.000000000000000E+000	0.00163827
2	0	0	1	0	0	0	267.748	-0.700002	-0.700518	-2.34444	-0.743698	-0.743698	11	-0.206583	0	0.206583	0.000000000000000E+000	0.206583	0.0000000E+000	0.000000000000000E+000	0.00164232
2	0	0	1	0	0	0	269.048	-0.700002	-0.700461	-2.34186	-0.746739	-0.746739	11	-0.207427	0	0.207427	0.000000000000000E+000	0.207427	0.0000000E+000	0.000000000000000E+000	0.00164038
2	0	0	1	0	0	0	270.348	-0.700002	-0.700594	-2.3516	-0.749787	-0.749787	11	-0.208274	0	0.208274	0.000000000000000E+000	0.208274	0.0000000E+000	0.000000000000000E+000	0.00164752
2	0	0	1	0	0	0	271.648	-0.700002	-0.700499	-2.35346	-0.752844	-0.752844	11	-0.209123	0	0.209123	0.000000000000000E+000	0.209123	0.0000000E+000	0.000000000000000E+000	0.00164859
2	0	0	1	0	0	0	272.948	-0.700002	-0.700518	-2.35266	-0.755905	-0.755905	11	-0.209974	0	0.209974	0.000000000000000E+000	0.209974	0.0000000E+000	0.000000000000000E+000	0.00164808
2	0	0	1	0	0	0	274.248	-0.700002	-0.700537	-2.34964	-0.758967	-0.758967	11	-0.210824	0	0.210824	0.000000000000000E+000	0.210824	0.0000000E+000	0.000000000000000E+000	0.00164601
2	0	0	1	0	0	0	275.548	-0.700002	-0.700461	-2.34822	-0.762023	-0.762023	11	-0.211673	0	0.211673	0.000000000000000E+000	0.211673	0.0000000E+000	0.000000000000000E+000	0.00164484
2	0	0	1	0	0	0	276.848	-0.700002	-0.700613	-2.35383	-0.765082	-0.765082	11	-0.212523	0	0.212523	0.000000000000000E+000	0.212523	0.0000000E+000	0.000000000000000E+000	0.00164912
2	0	0	1	0	0	0	278.148	-0.700002	-0.700442	-2.35546	-0.768143	-0.768143	11	-0.213373	0	0.213373	0.000000000000000E+000	0.213373	0.0000000E+000	0.000000000000000E+000	0.00164986
2	0	0	1	0	0	0	279.448	-0.700002	-0.700556	-2.36512	-0.771204	-0.771204	11	-0.214223	0	0.214223	0.000000000000000E+000	0.214223	0.0000000E+000	0.000000000000000E+000	0.0016569
2	0	0	1	0	0	0	280.748	-0.700002	-0.700499	-2.35983	-0.774273	-0.774273	11	-0.215076	0	0.215076	0.000000000000000E+000	0.215076	0.0000000E+000	0.000000000000000E+000	0.00165306
2	0	0	1	0	0	0	282.048	-0.700002	-0.700518	-2.61014	-0.777472	-0.777472	11	-0.215964	0	0.215964	0.000000000000000E+000	0.215964	0.0000000E+000	0.000000000000000E+000	0.00182845
2	0	0	1	0	0	0	283.348	-0.700002	-0.700518	-2.75439	-0.780984	-0.780984	11	-0.21694	0	0.21694	0.000000000000000E+000	0.21694	0.0000000E+000	0.000000000000000E+000	0.0019295
2	0	0	1	0	0	0	284.648	-0.700002	-0.700422	-2.80007	-0.784602	-0.784602	11	-0.217945	0	0.217945	0.000000000000000E+000	0.217945	0.0000000E+000	0.000000000000000E+000	0.00196123
2	0	0	1	0	0	0	285.948	-0.700002	-0.70048	-2.81581	-0.788255	-0.788255	11	-0.21896	0	0.21896	0.000000000000000E+000	0.21896	0.0000000E+000	0.000000000000000E+000	0.00197242
2	0	0	1	0	0	0	287.248	-0.700002	-0.70048	-2.82536	-0.791922	-0.791922	11	-0.219978	0	0.219978	0.000000000000000E+000	0.219978	0.0000000E+000	0.000000000000000E+000	0.00197911
2	0	0	1	0	0	0	288.548	-0.700002	-0.700575	-2.83008	-0.795596	-0.795596	11	-0.220999	0	0.220999	0.000000000000000E+000	0.220999	0.0000000E+000	0.000000000000000E+000	0.00198269
2	0	0	1	0	0	0	289.848	-0.700002	-0.700461	-2.83429	-0.799281	-0.799281	11	-0.222022	0	0.222022	0.000000000000000E+000	0.222022	0.0000000E+000	0.000000000000000E+000	0.00198531
2	0	0	1	0	0	0	291.148	-0.700002	-0.700556	-2.84165	-0.802971	-0.802971	11	-0.223047	0	0.223047	0.000000000000000E+000	0.223047	0.0000000E+000	0.000000000000000E+000	0.00199074
2	0	0	1	0	0	0	292.448	-0.700002	-0.700365	-2.84015	-0.806663	-0.806663	11	-0.224073	0	0.224073	0.000000000000000E+000	0.224073	0.0000000E+000	0.000000000000000E+000	0.00198914
2	0	0	1	0	0	0	293.748	-0.700002	-0.700384	-2.84315	-0.810355	-0.810355	11	-0.225099	0	0.225099	0.000000000000000E+000	0.225099	0.0000000E+000	0.000000000000000E+000	0.0019913
2	0	0	1	0	0	0	295.048	-0.700002	-0.700442	-2.84508	-0.814052	-0.814052	11	-0.226126	0	0.226126	0.000000000000000E+000	0.226126	0.0000000E+000	0.000000000000000E+000	0.00199281
2	0	0	1	0	0	0	296.348	-0.700002	-0.700289	-2.84904	-0.817757	-0.817757	11	-0.227155	0	0.227155	0.000000000000000E+000	0.227155	0.0000000E+000	0.000000000000000E+000	0.00199515
2	0	0	1	0	0	0	297.648	-0.700002	-0.700442	-2.84611	-0.821458	-0.821458	11	-0.228183	0	0.228183	0.000000000000000E+000	0.228183	0.0000000E+000	0.000000000000000E+000	0.00199353
2	0	0	1	0	0	0	298.948	-0.700002	-0.700537	-2.848	-0.825159	-0.825159	11	-0.229211	0	0.229211	0.000000000000000E+000	0.229211	0.0000000E+000	0.000000000000000E+000	0.00199513
2	0	0	1	0	0	0	300.248	-0.700002	-0.700461	-2.85094	-0.828863	-0.828863	11	-0.23024	0	0.23024	0.000000000000000E+000	0.23024	0.0000000E+000	0.000000000000000E+000	0.00199697
2	0	0	1	0	0	0	301.548	-0.700002	-0.700575	-2.84739	-0.832568	-0.832568	11	-0.231269	0	0.231269	0.000000000000000E+000	0.231269	0.0000000E+000	0.000000000000000E+000	0.00199481
2	0	0	1	0	0	0	302.848	-0.700002	-0.700461	-2.84489	-0.836267	-0.836267	11	-0.232297	0	0.232297	0.000000000000000E+000	0.232297	0.0000000E+000	0.000000000000000E+000	0.00199273
2	0	0	1	0	0	0	304.148	-0.700002	-0.70027	-3.02433	-0.840087	-0.840087	11	-0.233357	0	0.233357	0.000000000000000E+000	0.233357	0.0000000E+000	0.000000000000000E+000	0.00211785
2	0	0	1	0	0	0	305.448	-0.700002	-0.700461	-3.06648	-0.844055	-0.844055	11	-0.23446	0	0.23446	0.000000000000000E+000	0.23446	0.0000000E+000	0.000000000000000E+000	0.00214795
2	0	0	1	0	0	0	306.748	-0.700002	-0.700403	-3.08095	-0.848055	-0.848055	11	-0.235571	0	0.235571	0.000000000000000E+000	0.235571	0.0000000E+000	0.000000000000000E+000	0.00215791
2	0	0	1	0	0	0	308.048	-0.700002	-0.700422	-3.08978	-0.852068	-0.852068	11	-0.236686	0	0.236686	0.000000000000000E+000	0.236686	0.0000000E+000	0.000000000000000E+000	0.00216415
2	0	0	1	0	0	0	309.348	-0.700002	-0.700499	-3.09435	-0.856088	-0.856088	11	-0.237802	0	0.237802	0.000000000000000E+000	0.237802	0.0000000E+000	0.000000000000000E+000	0.00216759
2	0	0	1	0	0	0	310.648	-0.700002	-0.700556	-3.10199	-0.860115	-0.860115	11	-0.238921	0	0.238921	0.000000000000000E+000	0.238921	0.0000000E+000	0.000000000000000E+000	0.00217312
2	0	0	1	0	0	0	311.948	-0.700002	-0.700632	-3.09929	-0.864147	-0.864147	11	-0.240041	0	0.240041	0.000000000000000E+000	0.240041	0.0000000E+000	0.000000000000000E+000	0.00217146
2	0	0	1	0	0	0	313.248	-0.700002	-0.700461	-3.1033	-0.868178	-0.868178	11	-0.241161	0	0.241161	0.000000000000000E+000	0.241161	0.0000000E+000	0.000000000000000E+000	0.00217374
2	0	0	1	0	0	0	314.548	-0.700002	-0.700308	-3.10237	-0.872214	-0.872214	11	-0.242282	0	0.242282	0.000000000000000E+000	0.242282	0.0000000E+000	0.000000000000000E+000	0.00217261
2	0	0	1	0	0	0	315.848	-0.700002	-0.700556	-3.1065	-0.876251	-0.876251	11	-0.243403	0	0.243403	0.000000000000000E+000	0.243403	0.0000000E+000	0.000000000000000E+000	0.00217628
2	0	0	1	0	0	0	317.148	-0.700002	-0.700499	-3.10225	-0.880285	-0.880285	11	-0.244524	0	0.244524	0.000000000000000E+000	0.244524	0.0000000E+000	0.000000000000000E+000	0.00217312
2	0	0	1	0	0	0	318.448	-0.700002	-0.700384	-3.09975	-0.884318	-0.884318	11	-0.245644	0	0.245644	0.000000000000000E+000	0.245644	0.0000000E+000	0.000000000000000E+000	0.00217102
2	0	0	1	0	0	0	319.748	-0.700002	-0.700461	-3.10068	-0.888348	-0.888348	11	-0.246763	0	0.246763	0.000000000000000E+000	0.246763	0.0000000E+000	0.000000000000000E+000	0.00217191
2	0	0	1	0	0	0	321.048	-0.700002	-0.700461	-3.09784	-0.892376	-0.892376	11	-0.247882	0	0.247882	0.000000000000000E+000	0.247882	0.0000000E+000	0.000000000000000E+000	0.00216992
2	0	0	1	0	0	0	322.348	-0.700002	-0.700403	-3.09848	-0.896403	-0.896403	11	-0.249001	0	0.249001	0.000000000000000E+000	0.249001	0.0000000E+000	0.000000000000000E+000	0.00217018
2	0	0	1	0	0	0	323.648	-0.700002	-0.700442	-3.093	-0.900426	-0.900426	11	-0.250118	0	0.250118	0.000000000000000E+000	0.250118	0.0000000E+000	0.000000000000000E+000	0.00216647
2	0	0	1	0	0	0	324.948	-0.700002	-0.700422	-3.09578	-0.904448	-0.904448	11	-0.251236	0	0.251236	0.000000000000000E+000	0.251236	0.0000000E+000	0.000000000000000E+000	0.00216836
2	0	0	1	0	0	0	326.248	-0.700002	-0.700537	-3.08874	-0.908467	-0.908467	11	-0.252352	0	0.252352	0.000000000000000E+000	0.252352	0.0000000E+000	0.000000000000000E+000	0.00216378
2	0	0	1	0	0	0	327.548	-0.700002	-0.700346	-3.24172	-0.912507	-0.912507	11	-0.253474	0	0.253474	0.000000000000000E+000	0.253474	0.0000000E+000	0.000000000000000E+000	0.00227033
2	0	0	1	0	0	0	328.848	-0.700002	-0.700308	-3.42903	-0.916925	-0.916925	11	-0.254701	0	0.254701	0.000000000000000E+000	0.254701	0.0000000E+000	0.000000000000000E+000	0.00240138
2	0	0	1	0	0	0	330.148	-0.700002	-0.700308	-3.4476	-0.921396	-0.921396	11	-0.255943	0	0.255943	0.000000000000000E+000	0.255943	0.0000000E+000	0.000000000000000E+000	0.00241438
2	0	0	1	0	0	0	331.448	-0.700002	-0.700346	-3.45907	-0.925888	-0.925888	11	-0.257191	0	0.257191	0.000000000000000E+000	0.257191	0.0000000E+000	0.000000000000000E+000	0.00242255
2	0	0	1	0	0	0	332.748	-0.700002	-0.700422	-3.46715	-0.930392	-0.930392	11	-0.258442	0	0.258442	0.000000000000000E+000	0.258442	0.0000000E+000	0.000000000000000E+000	0.00242847
2	0	0	1	0	0	0	334.048	-0.700002	-0.700442	-3.4687	-0.9349	-0.9349	11	-0.259694	0	0.259694	0.000000000000000E+000	0.259694	0.0000000E+000	0.000000000000000E+000	0.00242962
2	0	0	1	0	0	0	335.348	-0.700002	-0.70069	-3.4655	-0.939407	-0.939407	11	-0.260946	0	0.260946	0.000000000000000E+000	0.260946	0.0000000E+000	0.000000000000000E+000	0.00242824
2	0	0	1	0	0	0	336.648	-0.700002	-0.700442	-3.46179	-0.943908	-0.943908	11	-0.262197	0	0.262197	0.000000000000000E+000	0.262197	0.0000000E+000	0.000000000000000E+000	0.00242478
2	0	0	1	0	0	0	337.948	-0.700002	-0.700403	-3.4619	-0.948407	-0.948407	11	-0.263447	0	0.263447	0.000000000000000E+000	0.263447	0.0000000E+000	0.000000000000000E+000	0.00242473
2	0	0	1	0	0	0	339.248	-0.700002	-0.700365	-3.46139	-0.952908	-0.952908	11	-0.264697	0	0.264697	0.000000000000000E+000	0.264697	0.0000000E+000	0.000000000000000E+000	0.00242424
2	0	0	1	0	0	0	340.548	-0.700002	-0.70006	-3.45905	-0.957404	-0.957404	11	-0.265946	0	0.265946	0.000000000000000E+000	0.265946	0.0000000E+000	0.000000000000000E+000	0.00242154
2	0	0	1	0	0	0	341.848	-0.700002	-0.700384	-3.45498	-0.961899	-0.961899	11	-0.267194	0	0.267194	0.000000000000000E+000	0.267194	0.0000000E+000	0.000000000000000E+000	0.00241981
2	0	0	1	0	0	0	343.148	-0.700002	-0.700308	-3.45376	-0.96639	-0.96639	11	-0.268442	0	0.268442	0.000000000000000E+000	0.268442	0.0000000E+000	0.000000000000000E+000	0.0024187
2	0	0	1	0	0	0	344.448	-0.700002	-0.700346	-3.45286	-0.97088	-0.97088	11	-0.269689	0	0.269689	0.000000000000000E+000	0.269689	0.0000000E+000	0.000000000000000E+000	0.0024182
2	0	0	1	0	0	0	345.748	-0.700002	-0.700518	-3.45086	-0.975366	-0.975366	11	-0.270935	0	0.270935	0.000000000000000E+000	0.270935	0.0000000E+000	0.000000000000000E+000	0.00241739
2	0	0	1	0	0	0	347.048	-0.700002	-0.70048	-3.44639	-0.979851	-0.979851	11	-0.272181	0	0.272181	0.000000000000000E+000	0.272181	0.0000000E+000	0.000000000000000E+000	0.00241413
2	0	0	1	0	0	0	348.348	-0.700002	-0.700518	-3.44942	-0.984333	-0.984333	11	-0.273426	0	0.273426	0.000000000000000E+000	0.273426	0.0000000E+000	0.000000000000000E+000	0.00241638
2	0	0	1	0	0	0	349.648	-0.700002	-0.700442	-3.44316	-0.988811	-0.988811	11	-0.27467	0	0.27467	0.000000000000000E+000	0.27467	0.0000000E+000	0.000000000000000E+000	0.00241173
2	0	0	1	0	0	0	350.948	-0.700002	-0.700518	-3.44041	-0.993284	-0.993284	11	-0.275912	0	0.275912	0.000000000000000E+000	0.275912	0.0000000E+000	0.000000000000000E+000	0.00241007
2	0	0	1	0	0	0	352.248	-0.700002	-0.700518	-3.43878	-0.997753	-0.997753	11	-0.277154	0	0.277154	0.000000000000000E+000	0.277154	0.0000000E+000	0.000000000000000E+000	0.00240893
2	0	0	1	0	0	0	353.548	-0.700002	-0.700327	-3.43783	-1.00222	-1.00222	11	-0.278395	0	0.278395	0.000000000000000E+000	0.278395	0.0000000E+000	0.000000000000000E+000	0.00240761
2	0	0	1	0	0	0	354.848	-0.700002	-0.700442	-3.43645	-1.00669	-1.00669	11	-0.279636	0	0.279636	0.000000000000000E+000	0.279636	0.0000000E+000	0.000000000000000E+000	0.00240703
2	0	0	1	0	0	0	356.148	-0.700002	-0.700518	-3.43401	-1.01115	-1.01115	11	-0.280876	0	0.280876	0.000000000000000E+000	0.280876	0.0000000E+000	0.000000000000000E+000	0.00240559
2	0	0	1	0	0	0	357.448	-0.700002	-0.700613	-3.4321	-1.01562	-1.01562	11	-0.282115	0	0.282115	0.000000000000000E+000	0.282115	0.0000000E+000	0.000000000000000E+000	0.00240458
2	0	0	1	0	0	0	358.748	-0.700002	-0.700575	-3.42763	-1.02007	-1.02007	11	-0.283354	0	0.283354	0.000000000000000E+000	0.283354	0.0000000E+000	0.000000000000000E+000	0.00240131
2	0	0	1	0	0	0	359.529	-0.700002	-0.700442	-3.42724	-1.02275	-1.02275	11	-0.284097	0	0.284097	0.000000000000000E+000	0.284097	0.0000000E+000	0.000000000000000E+000	0.00240058