File: ZnPVAGAECH_07 RDE 3 ECH 1600 rpm K-L.mpt
EC-Lab ASCII FILE
Nb header lines : 66

Chronoamperometry / Chronocoulometry

Run on channel : 5 (SN 6729)
User :
CE vs. WE compliance from -10 V to 10 V
Electrode connection : standard
Potential control : Ewe
Ewe ctrl range : min = -2.50 V, max = 2.50 V
Safety Limits :
	Do not start on E overload
Acquisition started on : 03/23/2022 16:11:12.156
Technique started on : 03/23/2022 16:19:58.390
Loaded Setting File :  NONE
Saved on :
	File : 03-23-22-ZnPVAGA  ECH KL 100-1600 rpm at -0_8V vs RHE RDE2_05_CA_C05.mpr
	Directory : \\research-scb.egr.msu.edu\research-scb\Mindy\Koutecky Levich\Zn GA PVA 001\ECH\03-23-22\
	Host : 35.9.136.210
Device : VSP (SN 0012)
Address : 35.9.137.65
EC-Lab for windows v11.43 (software)
Internet server v11.40 (firmware)
Command interpretor v11.40 (firmware)
Electrode material : Au/Pd
Initial state :
Electrolyte : NaCl (0.2M)
Comments : Fe(CN)63-/Fe(CN)64- 5.10-3 M
Reference electrode : SCE Saturated Calomel Electrode (0.241 V)
Electrode surface area : 0.196 cm²
Characteristic mass : 0.001 g
Equivalent Weight : 0.000 g/eq.
Density : 0.000 g/cm3
Volume (V) : 0.001 cm³
Cycle Definition : Charge/Discharge alternance
Ei (V)              -1.100
vs.                 Ref
ti (h:m:s)          0:30:0.0000
Imax                pass
unit Imax           mA
Imin                pass
unit Imin           mA
dQM                 0.000
unit dQM            mA.h
record              <I>
dI                  5.000
unit dI             µA
dQ                  0.000
unit dQ             mA.h
dt (s)              0.1000
dta (s)             0.1000
E range min (V)     -2.500
E range max (V)     2.500
I Range             Auto
I Range min         Unset
I Range max         Unset
I Range init        Unset
Bandwidth           5
goto Ns'            0
nc cycles           0

Modify on : 03/23/2022 16:19
Ei (V)              -0.750

mode	ox/red	error	control changes	Ns changes	counter inc.	Ns	time/s	control/V	Ewe/V	<I>/mA	dQ/C	(Q-Qo)/C	I Range	Q charge/discharge/mA.h	half cycle	Q discharge/mA.h	Q charge/mA.h	Capacity/mA.h	Efficiency/%	cycle number	P/W
2	0	0	1	0	0	0	526.234	-0.749999	-0.750343	-1.29681	-5.91254e-05	-5.91254e-05	11	-1.64237e-05	0	1.64237e-05	0.000000000000000E+000	1.64237e-05	0.0000000E+000	0.000000000000000E+000	0.000973055
2	0	0	1	0	0	0	527.434	-0.749999	-0.750362	-1.16032	-0.00149788	-0.00149788	11	-0.000416079	0	0.000416079	0.000000000000000E+000	0.000416079	0.0000000E+000	0.000000000000000E+000	0.000870661
2	0	0	1	0	0	0	528.634	-0.749999	-0.75042	-1.12928	-0.00286691	-0.00286691	11	-0.000796363	0	0.000796363	0.000000000000000E+000	0.000796363	0.0000000E+000	0.000000000000000E+000	0.000847433
2	0	0	1	0	0	0	529.834	-0.749999	-0.750534	-1.11373	-0.00421065	-0.00421065	11	-0.00116963	0	0.00116963	0.000000000000000E+000	0.00116963	0.0000000E+000	0.000000000000000E+000	0.000835893
2	0	0	1	0	0	0	531.034	-0.749999	-0.750458	-1.10623	-0.00554154	-0.00554154	11	-0.00153932	0	0.00153932	0.000000000000000E+000	0.00153932	0.0000000E+000	0.000000000000000E+000	0.000830181
2	0	0	1	0	0	0	532.234	-0.749999	-0.750439	-1.10178	-0.00686549	-0.00686549	11	-0.00190708	0	0.00190708	0.000000000000000E+000	0.00190708	0.0000000E+000	0.000000000000000E+000	0.000826817
2	0	0	1	0	0	0	533.434	-0.749999	-0.750381	-1.09888	-0.00818504	-0.00818504	11	-0.00227362	0	0.00227362	0.000000000000000E+000	0.00227362	0.0000000E+000	0.000000000000000E+000	0.000824577
2	0	0	1	0	0	0	534.634	-0.749999	-0.75042	-1.09698	-0.00950241	-0.00950241	11	-0.00263956	0	0.00263956	0.000000000000000E+000	0.00263956	0.0000000E+000	0.000000000000000E+000	0.000823193
2	0	0	1	0	0	0	535.834	-0.749999	-0.750343	-1.09698	-0.0108191	-0.0108191	11	-0.00300532	0	0.00300532	0.000000000000000E+000	0.00300532	0.0000000E+000	0.000000000000000E+000	0.000823109
2	0	0	1	0	0	0	537.034	-0.749999	-0.750458	-1.09619	-0.0121351	-0.0121351	11	-0.00337085	0	0.00337085	0.000000000000000E+000	0.00337085	0.0000000E+000	0.000000000000000E+000	0.000822645
2	0	0	1	0	0	0	538.234	-0.749999	-0.750439	-1.09587	-0.0134503	-0.0134503	11	-0.0037362	0	0.0037362	0.000000000000000E+000	0.0037362	0.0000000E+000	0.000000000000000E+000	0.00082238
2	0	0	1	0	0	0	539.434	-0.749999	-0.750458	-1.09709	-0.0147663	-0.0147663	11	-0.00410175	0	0.00410175	0.000000000000000E+000	0.00410175	0.0000000E+000	0.000000000000000E+000	0.00082332
2	0	0	1	0	0	0	540.634	-0.749999	-0.750324	-1.09768	-0.0160833	-0.0160833	11	-0.0044676	0	0.0044676	0.000000000000000E+000	0.0044676	0.0000000E+000	0.000000000000000E+000	0.000823613
2	0	0	1	0	0	0	541.834	-0.749999	-0.750362	-1.09737	-0.0174003	-0.0174003	11	-0.00483342	0	0.00483342	0.000000000000000E+000	0.00483342	0.0000000E+000	0.000000000000000E+000	0.000823422
2	0	0	1	0	0	0	543.034	-0.749999	-0.750439	-1.09694	-0.0187167	-0.0187167	11	-0.00519909	0	0.00519909	0.000000000000000E+000	0.00519909	0.0000000E+000	0.000000000000000E+000	0.000823187
2	0	0	1	0	0	0	544.234	-0.749999	-0.750515	-1.09677	-0.0200334	-0.0200334	11	-0.00556483	0	0.00556483	0.000000000000000E+000	0.00556483	0.0000000E+000	0.000000000000000E+000	0.00082314
2	0	0	1	0	0	0	545.434	-0.749999	-0.750381	-1.09707	-0.0213502	-0.0213502	11	-0.0059306	0	0.0059306	0.000000000000000E+000	0.0059306	0.0000000E+000	0.000000000000000E+000	0.000823219
2	0	0	1	0	0	0	546.634	-0.749999	-0.750477	-1.09256	-0.0226663	-0.0226663	11	-0.00629619	0	0.00629619	0.000000000000000E+000	0.00629619	0.0000000E+000	0.000000000000000E+000	0.00081994
2	0	0	1	0	0	0	547.834	-0.749999	-0.750458	-1.07908	-0.0239654	-0.0239654	11	-0.00665705	0	0.00665705	0.000000000000000E+000	0.00665705	0.0000000E+000	0.000000000000000E+000	0.000809802
2	0	0	1	0	0	0	549.034	-0.749999	-0.750401	-1.07633	-0.025258	-0.025258	11	-0.0070161	0	0.0070161	0.000000000000000E+000	0.0070161	0.0000000E+000	0.000000000000000E+000	0.000807682
2	0	0	1	0	0	0	550.234	-0.749999	-0.750343	-1.07338	-0.0265472	-0.0265472	11	-0.00737421	0	0.00737421	0.000000000000000E+000	0.00737421	0.0000000E+000	0.000000000000000E+000	0.000805404
2	0	0	1	0	0	0	551.434	-0.749999	-0.75042	-1.07179	-0.0278339	-0.0278339	11	-0.00773164	0	0.00773164	0.000000000000000E+000	0.00773164	0.0000000E+000	0.000000000000000E+000	0.000804295
2	0	0	1	0	0	0	552.634	-0.749999	-0.750401	-1.07164	-0.0291198	-0.0291198	11	-0.00808884	0	0.00808884	0.000000000000000E+000	0.00808884	0.0000000E+000	0.000000000000000E+000	0.000804156
2	0	0	1	0	0	0	553.834	-0.749999	-0.750381	-1.0712	-0.0304052	-0.0304052	11	-0.00844589	0	0.00844589	0.000000000000000E+000	0.00844589	0.0000000E+000	0.000000000000000E+000	0.000803805
2	0	0	1	0	0	0	555.034	-0.749999	-0.750458	-1.06992	-0.0316897	-0.0316897	11	-0.0088027	0	0.0088027	0.000000000000000E+000	0.0088027	0.0000000E+000	0.000000000000000E+000	0.000802928
2	0	0	1	0	0	0	556.234	-0.749999	-0.750496	-1.06977	-0.0329739	-0.0329739	11	-0.00915943	0	0.00915943	0.000000000000000E+000	0.00915943	0.0000000E+000	0.000000000000000E+000	0.000802855
2	0	0	1	0	0	0	557.434	-0.749999	-0.750305	-1.06889	-0.0342577	-0.0342577	11	-0.00951604	0	0.00951604	0.000000000000000E+000	0.00951604	0.0000000E+000	0.000000000000000E+000	0.000801995
2	0	0	1	0	0	0	558.634	-0.749999	-0.750515	-1.06895	-0.0355411	-0.0355411	11	-0.00987253	0	0.00987253	0.000000000000000E+000	0.00987253	0.0000000E+000	0.000000000000000E+000	0.000802261
2	0	0	1	0	0	0	559.834	-0.749999	-0.750458	-1.06925	-0.0368246	-0.0368246	11	-0.0102291	0	0.0102291	0.000000000000000E+000	0.0102291	0.0000000E+000	0.000000000000000E+000	0.000802426
2	0	0	1	0	0	0	561.034	-0.749999	-0.750381	-1.06166	-0.0381045	-0.0381045	11	-0.0105846	0	0.0105846	0.000000000000000E+000	0.0105846	0.0000000E+000	0.000000000000000E+000	0.000796652
2	0	0	1	0	0	0	562.234	-0.749999	-0.750324	-1.05564	-0.039374	-0.039374	11	-0.0109372	0	0.0109372	0.000000000000000E+000	0.0109372	0.0000000E+000	0.000000000000000E+000	0.000792071
2	0	0	1	0	0	0	563.434	-0.749999	-0.750401	-1.05232	-0.0406383	-0.0406383	11	-0.0112884	0	0.0112884	0.000000000000000E+000	0.0112884	0.0000000E+000	0.000000000000000E+000	0.000789658
2	0	0	1	0	0	0	564.634	-0.749999	-0.750439	-1.04994	-0.0418996	-0.0418996	11	-0.0116388	0	0.0116388	0.000000000000000E+000	0.0116388	0.0000000E+000	0.000000000000000E+000	0.000787916
2	0	0	1	0	0	0	565.834	-0.749999	-0.750458	-1.04918	-0.0431591	-0.0431591	11	-0.0119886	0	0.0119886	0.000000000000000E+000	0.0119886	0.0000000E+000	0.000000000000000E+000	0.000787369
2	0	0	1	0	0	0	567.034	-0.749999	-0.750477	-1.0491	-0.0444179	-0.0444179	11	-0.0123383	0	0.0123383	0.000000000000000E+000	0.0123383	0.0000000E+000	0.000000000000000E+000	0.000787327
2	0	0	1	0	0	0	568.234	-0.749999	-0.750343	-1.04857	-0.0456764	-0.0456764	11	-0.0126879	0	0.0126879	0.000000000000000E+000	0.0126879	0.0000000E+000	0.000000000000000E+000	0.00078679
2	0	0	1	0	0	0	569.434	-0.749999	-0.750286	-1.04842	-0.0469345	-0.0469345	11	-0.0130374	0	0.0130374	0.000000000000000E+000	0.0130374	0.0000000E+000	0.000000000000000E+000	0.000786617
2	0	0	1	0	0	0	570.634	-0.749999	-0.750381	-1.04751	-0.0481916	-0.0481916	11	-0.0133866	0	0.0133866	0.000000000000000E+000	0.0133866	0.0000000E+000	0.000000000000000E+000	0.000786031
2	0	0	1	0	0	0	571.834	-0.749999	-0.750439	-1.04672	-0.0494482	-0.0494482	11	-0.0137356	0	0.0137356	0.000000000000000E+000	0.0137356	0.0000000E+000	0.000000000000000E+000	0.000785502
2	0	0	1	0	0	0	573.034	-0.749999	-0.750286	-1.04604	-0.0507039	-0.0507039	11	-0.0140844	0	0.0140844	0.000000000000000E+000	0.0140844	0.0000000E+000	0.000000000000000E+000	0.000784826
2	0	0	1	0	0	0	574.234	-0.749999	-0.750381	-1.04674	-0.0519598	-0.0519598	11	-0.0144333	0	0.0144333	0.000000000000000E+000	0.0144333	0.0000000E+000	0.000000000000000E+000	0.000785454
2	0	0	1	0	0	0	575.434	-0.749999	-0.750381	-1.04676	-0.0532155	-0.0532155	11	-0.0147821	0	0.0147821	0.000000000000000E+000	0.0147821	0.0000000E+000	0.000000000000000E+000	0.000785471
2	0	0	1	0	0	0	576.634	-0.749999	-0.750362	-1.04645	-0.0544716	-0.0544716	11	-0.015131	0	0.015131	0.000000000000000E+000	0.015131	0.0000000E+000	0.000000000000000E+000	0.000785218
2	0	0	1	0	0	0	577.834	-0.749999	-0.75042	-1.0472	-0.055728	-0.055728	11	-0.01548	0	0.01548	0.000000000000000E+000	0.01548	0.0000000E+000	0.000000000000000E+000	0.000785843
2	0	0	1	0	0	0	579.034	-0.749999	-0.75021	-1.04699	-0.0569845	-0.0569845	11	-0.015829	0	0.015829	0.000000000000000E+000	0.015829	0.0000000E+000	0.000000000000000E+000	0.000785459
2	0	0	1	0	0	0	580.234	-0.749999	-0.750286	-1.04622	-0.0582406	-0.0582406	11	-0.0161779	0	0.0161779	0.000000000000000E+000	0.0161779	0.0000000E+000	0.000000000000000E+000	0.000784961
2	0	0	1	0	0	0	581.434	-0.749999	-0.750286	-1.05338	-0.0595	-0.0595	11	-0.0165278	0	0.0165278	0.000000000000000E+000	0.0165278	0.0000000E+000	0.000000000000000E+000	0.000790334
2	0	0	1	0	0	0	582.634	-0.749999	-0.750458	-1.04073	-0.0607581	-0.0607581	11	-0.0168772	0	0.0168772	0.000000000000000E+000	0.0168772	0.0000000E+000	0.000000000000000E+000	0.000781026
2	0	0	1	0	0	0	583.834	-0.749999	-0.750343	-1.02254	-0.0619945	-0.0619945	11	-0.0172207	0	0.0172207	0.000000000000000E+000	0.0172207	0.0000000E+000	0.000000000000000E+000	0.000767256
2	0	0	1	0	0	0	585.034	-0.749999	-0.750496	-1.01326	-0.0632146	-0.0632146	11	-0.0175596	0	0.0175596	0.000000000000000E+000	0.0175596	0.0000000E+000	0.000000000000000E+000	0.000760448
2	0	0	1	0	0	0	586.234	-0.749999	-0.750343	-1.00647	-0.0644262	-0.0644262	11	-0.0178962	0	0.0178962	0.000000000000000E+000	0.0178962	0.0000000E+000	0.000000000000000E+000	0.000755197
2	0	0	1	0	0	0	587.434	-0.749999	-0.750401	-1.00431	-0.0656325	-0.0656325	11	-0.0182313	0	0.0182313	0.000000000000000E+000	0.0182313	0.0000000E+000	0.000000000000000E+000	0.000753635
2	0	0	1	0	0	0	588.634	-0.749999	-0.750362	-1.0012	-0.0668356	-0.0668356	11	-0.0185654	0	0.0185654	0.000000000000000E+000	0.0185654	0.0000000E+000	0.000000000000000E+000	0.000751261
2	0	0	1	0	0	0	589.834	-0.749999	-0.750343	-0.999622	-0.0680364	-0.0680364	11	-0.018899	0	0.018899	0.000000000000000E+000	0.018899	0.0000000E+000	0.000000000000000E+000	0.00075006
2	0	0	1	0	0	0	591.034	-0.749999	-0.750362	-0.999328	-0.0692354	-0.0692354	11	-0.0192321	0	0.0192321	0.000000000000000E+000	0.0192321	0.0000000E+000	0.000000000000000E+000	0.000749858
2	0	0	1	0	0	0	592.234	-0.749999	-0.750458	-0.996638	-0.0704331	-0.0704331	11	-0.0195648	0	0.0195648	0.000000000000000E+000	0.0195648	0.0000000E+000	0.000000000000000E+000	0.000747935
2	0	0	1	0	0	0	593.434	-0.749999	-0.750401	-0.99788	-0.0716301	-0.0716301	11	-0.0198972	0	0.0198972	0.000000000000000E+000	0.0198972	0.0000000E+000	0.000000000000000E+000	0.00074881
2	0	0	1	0	0	0	594.634	-0.749999	-0.750496	-0.99611	-0.0728265	-0.0728265	11	-0.0202296	0	0.0202296	0.000000000000000E+000	0.0202296	0.0000000E+000	0.000000000000000E+000	0.000747577
2	0	0	1	0	0	0	595.834	-0.749999	-0.750305	-0.996348	-0.0740224	-0.0740224	11	-0.0205618	0	0.0205618	0.000000000000000E+000	0.0205618	0.0000000E+000	0.000000000000000E+000	0.000747565
2	0	0	1	0	0	0	597.034	-0.749999	-0.75042	-0.995717	-0.0752169	-0.0752169	11	-0.0208936	0	0.0208936	0.000000000000000E+000	0.0208936	0.0000000E+000	0.000000000000000E+000	0.000747206
2	0	0	1	0	0	0	598.234	-0.749999	-0.750439	-0.993888	-0.0764104	-0.0764104	11	-0.0212251	0	0.0212251	0.000000000000000E+000	0.0212251	0.0000000E+000	0.000000000000000E+000	0.000745852
2	0	0	1	0	0	0	599.434	-0.749999	-0.75042	-0.995945	-0.0776045	-0.0776045	11	-0.0215568	0	0.0215568	0.000000000000000E+000	0.0215568	0.0000000E+000	0.000000000000000E+000	0.000747377
2	0	0	1	0	0	0	600.634	-0.749999	-0.75042	-0.994556	-0.0787988	-0.0787988	11	-0.0218886	0	0.0218886	0.000000000000000E+000	0.0218886	0.0000000E+000	0.000000000000000E+000	0.000746334
2	0	0	1	0	0	0	601.834	-0.749999	-0.750496	-0.995268	-0.0799929	-0.0799929	11	-0.0222202	0	0.0222202	0.000000000000000E+000	0.0222202	0.0000000E+000	0.000000000000000E+000	0.000746944
2	0	0	1	0	0	0	603.034	-0.749999	-0.750458	-0.993761	-0.0811866	-0.0811866	11	-0.0225518	0	0.0225518	0.000000000000000E+000	0.0225518	0.0000000E+000	0.000000000000000E+000	0.000745776
2	0	0	1	0	0	0	604.234	-0.749999	-0.750381	-0.983259	-0.0823726	-0.0823726	11	-0.0228813	0	0.0228813	0.000000000000000E+000	0.0228813	0.0000000E+000	0.000000000000000E+000	0.000737819
2	0	0	1	0	0	0	605.434	-0.749999	-0.750362	-0.972339	-0.0835444	-0.0835444	11	-0.0232068	0	0.0232068	0.000000000000000E+000	0.0232068	0.0000000E+000	0.000000000000000E+000	0.000729607
2	0	0	1	0	0	0	606.634	-0.749999	-0.750439	-0.966292	-0.0847075	-0.0847075	11	-0.0235299	0	0.0235299	0.000000000000000E+000	0.0235299	0.0000000E+000	0.000000000000000E+000	0.000725143
2	0	0	1	0	0	0	607.834	-0.749999	-0.750496	-0.964153	-0.0858648	-0.0858648	11	-0.0238513	0	0.0238513	0.000000000000000E+000	0.0238513	0.0000000E+000	0.000000000000000E+000	0.000723593
2	0	0	1	0	0	0	609.034	-0.749999	-0.750439	-0.961275	-0.0870196	-0.0870196	11	-0.0241721	0	0.0241721	0.000000000000000E+000	0.0241721	0.0000000E+000	0.000000000000000E+000	0.000721378
2	0	0	1	0	0	0	610.234	-0.749999	-0.750381	-0.959699	-0.0881716	-0.0881716	11	-0.0244921	0	0.0244921	0.000000000000000E+000	0.0244921	0.0000000E+000	0.000000000000000E+000	0.00072014
2	0	0	1	0	0	0	611.434	-0.749999	-0.750477	-0.958525	-0.0893223	-0.0893223	11	-0.0248118	0	0.0248118	0.000000000000000E+000	0.0248118	0.0000000E+000	0.000000000000000E+000	0.000719351
2	0	0	1	0	0	0	612.634	-0.749999	-0.750401	-0.956121	-0.090471	-0.090471	11	-0.0251308	0	0.0251308	0.000000000000000E+000	0.0251308	0.0000000E+000	0.000000000000000E+000	0.000717474
2	0	0	1	0	0	0	613.834	-0.749999	-0.750381	-0.957868	-0.0916193	-0.0916193	11	-0.0254498	0	0.0254498	0.000000000000000E+000	0.0254498	0.0000000E+000	0.000000000000000E+000	0.000718766
2	0	0	1	0	0	0	615.034	-0.749999	-0.750343	-0.956334	-0.0927671	-0.0927671	11	-0.0257687	0	0.0257687	0.000000000000000E+000	0.0257687	0.0000000E+000	0.000000000000000E+000	0.000717579
2	0	0	1	0	0	0	616.234	-0.749999	-0.750381	-0.956894	-0.0939155	-0.0939155	11	-0.0260876	0	0.0260876	0.000000000000000E+000	0.0260876	0.0000000E+000	0.000000000000000E+000	0.000718035
2	0	0	1	0	0	0	617.434	-0.749999	-0.750305	-0.957187	-0.095064	-0.095064	11	-0.0264067	0	0.0264067	0.000000000000000E+000	0.0264067	0.0000000E+000	0.000000000000000E+000	0.000718182
2	0	0	1	0	0	0	618.634	-0.749999	-0.750401	-0.955771	-0.0962117	-0.0962117	11	-0.0267255	0	0.0267255	0.000000000000000E+000	0.0267255	0.0000000E+000	0.000000000000000E+000	0.000717211
2	0	0	1	0	0	0	619.834	-0.749999	-0.750458	-0.955119	-0.0973586	-0.0973586	11	-0.027044	0	0.027044	0.000000000000000E+000	0.027044	0.0000000E+000	0.000000000000000E+000	0.000716776
2	0	0	1	0	0	0	621.034	-0.749999	-0.750362	-0.954141	-0.0985041	-0.0985041	11	-0.0273623	0	0.0273623	0.000000000000000E+000	0.0273623	0.0000000E+000	0.000000000000000E+000	0.000715952
2	0	0	1	0	0	0	622.234	-0.749999	-0.750286	-0.954424	-0.0996489	-0.0996489	11	-0.0276803	0	0.0276803	0.000000000000000E+000	0.0276803	0.0000000E+000	0.000000000000000E+000	0.000716091
2	0	0	1	0	0	0	623.434	-0.749999	-0.750515	-0.935818	-0.100781	-0.100781	11	-0.0279948	0	0.0279948	0.000000000000000E+000	0.0279948	0.0000000E+000	0.000000000000000E+000	0.000702346
2	0	0	1	0	0	0	624.634	-0.749999	-0.750381	-0.926347	-0.101899	-0.101899	11	-0.0283052	0	0.0283052	0.000000000000000E+000	0.0283052	0.0000000E+000	0.000000000000000E+000	0.000695114
2	0	0	1	0	0	0	625.834	-0.749999	-0.750439	-0.9195	-0.103006	-0.103006	11	-0.0286128	0	0.0286128	0.000000000000000E+000	0.0286128	0.0000000E+000	0.000000000000000E+000	0.000690028
2	0	0	1	0	0	0	627.034	-0.749999	-0.750381	-0.916722	-0.104106	-0.104106	11	-0.0289184	0	0.0289184	0.000000000000000E+000	0.0289184	0.0000000E+000	0.000000000000000E+000	0.000687891
2	0	0	1	0	0	0	628.234	-0.749999	-0.750458	-0.909983	-0.105202	-0.105202	11	-0.0292227	0	0.0292227	0.000000000000000E+000	0.0292227	0.0000000E+000	0.000000000000000E+000	0.000682904
2	0	0	1	0	0	0	629.434	-0.749999	-0.750496	-0.908985	-0.106294	-0.106294	11	-0.0295261	0	0.0295261	0.000000000000000E+000	0.0295261	0.0000000E+000	0.000000000000000E+000	0.00068219
2	0	0	1	0	0	0	630.634	-0.749999	-0.75042	-0.908184	-0.107385	-0.107385	11	-0.029829	0	0.029829	0.000000000000000E+000	0.029829	0.0000000E+000	0.000000000000000E+000	0.000681519
2	0	0	1	0	0	0	631.834	-0.749999	-0.750381	-0.909091	-0.108474	-0.108474	11	-0.0301317	0	0.0301317	0.000000000000000E+000	0.0301317	0.0000000E+000	0.000000000000000E+000	0.000682165
2	0	0	1	0	0	0	633.034	-0.749999	-0.750324	-0.905963	-0.109563	-0.109563	11	-0.0304341	0	0.0304341	0.000000000000000E+000	0.0304341	0.0000000E+000	0.000000000000000E+000	0.000679766
2	0	0	1	0	0	0	634.234	-0.749999	-0.750515	-0.906283	-0.110652	-0.110652	11	-0.0307366	0	0.0307366	0.000000000000000E+000	0.0307366	0.0000000E+000	0.000000000000000E+000	0.000680179
2	0	0	1	0	0	0	635.434	-0.749999	-0.750381	-0.906282	-0.11174	-0.11174	11	-0.0310388	0	0.0310388	0.000000000000000E+000	0.0310388	0.0000000E+000	0.000000000000000E+000	0.000680057
2	0	0	1	0	0	0	636.634	-0.749999	-0.750381	-0.907658	-0.112827	-0.112827	11	-0.0313409	0	0.0313409	0.000000000000000E+000	0.0313409	0.0000000E+000	0.000000000000000E+000	0.00068109
2	0	0	1	0	0	0	637.834	-0.749999	-0.750401	-0.904799	-0.113914	-0.113914	11	-0.0316429	0	0.0316429	0.000000000000000E+000	0.0316429	0.0000000E+000	0.000000000000000E+000	0.000678961
2	0	0	1	0	0	0	639.034	-0.749999	-0.750381	-0.905059	-0.115001	-0.115001	11	-0.0319448	0	0.0319448	0.000000000000000E+000	0.0319448	0.0000000E+000	0.000000000000000E+000	0.000679139
2	0	0	1	0	0	0	640.234	-0.749999	-0.75042	-0.904645	-0.116088	-0.116088	11	-0.0322466	0	0.0322466	0.000000000000000E+000	0.0322466	0.0000000E+000	0.000000000000000E+000	0.000678863
2	0	0	1	0	0	0	641.434	-0.749999	-0.750381	-0.906483	-0.117174	-0.117174	11	-0.0325484	0	0.0325484	0.000000000000000E+000	0.0325484	0.0000000E+000	0.000000000000000E+000	0.000680208
2	0	0	1	0	0	0	642.634	-0.749999	-0.75042	-0.903832	-0.11826	-0.11826	11	-0.03285	0	0.03285	0.000000000000000E+000	0.03285	0.0000000E+000	0.000000000000000E+000	0.000678253
2	0	0	1	0	0	0	643.834	-0.749999	-0.750381	-0.904275	-0.119346	-0.119346	11	-0.0331517	0	0.0331517	0.000000000000000E+000	0.0331517	0.0000000E+000	0.000000000000000E+000	0.000678551
2	0	0	1	0	0	0	645.034	-0.749999	-0.750362	-0.905037	-0.120432	-0.120432	11	-0.0334534	0	0.0334534	0.000000000000000E+000	0.0334534	0.0000000E+000	0.000000000000000E+000	0.000679106
2	0	0	1	0	0	0	646.234	-0.749999	-0.750362	-0.906899	-0.121519	-0.121519	11	-0.0337552	0	0.0337552	0.000000000000000E+000	0.0337552	0.0000000E+000	0.000000000000000E+000	0.000680503
2	0	0	1	0	0	0	647.434	-0.749999	-0.750381	-0.902508	-0.122605	-0.122605	11	-0.0340568	0	0.0340568	0.000000000000000E+000	0.0340568	0.0000000E+000	0.000000000000000E+000	0.000677225
2	0	0	1	0	0	0	648.634	-0.749999	-0.75042	-0.893675	-0.123684	-0.123684	11	-0.0343566	0	0.0343566	0.000000000000000E+000	0.0343566	0.0000000E+000	0.000000000000000E+000	0.000670631
2	0	0	1	0	0	0	649.834	-0.749999	-0.750343	-0.885582	-0.124751	-0.124751	11	-0.0346532	0	0.0346532	0.000000000000000E+000	0.0346532	0.0000000E+000	0.000000000000000E+000	0.000664491
2	0	0	1	0	0	0	651.034	-0.749999	-0.750362	-0.879566	-0.125811	-0.125811	11	-0.0349474	0	0.0349474	0.000000000000000E+000	0.0349474	0.0000000E+000	0.000000000000000E+000	0.000659994
2	0	0	1	0	0	0	652.234	-0.749999	-0.750496	-0.875539	-0.126864	-0.126864	11	-0.0352399	0	0.0352399	0.000000000000000E+000	0.0352399	0.0000000E+000	0.000000000000000E+000	0.000657088
2	0	0	1	0	0	0	653.434	-0.749999	-0.750458	-0.872738	-0.127912	-0.127912	11	-0.0355312	0	0.0355312	0.000000000000000E+000	0.0355312	0.0000000E+000	0.000000000000000E+000	0.000654953
2	0	0	1	0	0	0	654.634	-0.749999	-0.750248	-0.870105	-0.128958	-0.128958	11	-0.0358217	0	0.0358217	0.000000000000000E+000	0.0358217	0.0000000E+000	0.000000000000000E+000	0.000652795
2	0	0	1	0	0	0	655.834	-0.749999	-0.750439	-0.869652	-0.130002	-0.130002	11	-0.0361118	0	0.0361118	0.000000000000000E+000	0.0361118	0.0000000E+000	0.000000000000000E+000	0.00065262
2	0	0	1	0	0	0	657.034	-0.749999	-0.750401	-0.869104	-0.131046	-0.131046	11	-0.0364016	0	0.0364016	0.000000000000000E+000	0.0364016	0.0000000E+000	0.000000000000000E+000	0.000652176
2	0	0	1	0	0	0	658.234	-0.749999	-0.750362	-0.868779	-0.132088	-0.132088	11	-0.0366912	0	0.0366912	0.000000000000000E+000	0.0366912	0.0000000E+000	0.000000000000000E+000	0.000651899
2	0	0	1	0	0	0	659.434	-0.749999	-0.750458	-0.868826	-0.13313	-0.13313	11	-0.0369806	0	0.0369806	0.000000000000000E+000	0.0369806	0.0000000E+000	0.000000000000000E+000	0.000652017
2	0	0	1	0	0	0	660.634	-0.749999	-0.750439	-0.868868	-0.134172	-0.134172	11	-0.0372699	0	0.0372699	0.000000000000000E+000	0.0372699	0.0000000E+000	0.000000000000000E+000	0.000652032
2	0	0	1	0	0	0	661.834	-0.749999	-0.750381	-0.869036	-0.135213	-0.135213	11	-0.0375591	0	0.0375591	0.000000000000000E+000	0.0375591	0.0000000E+000	0.000000000000000E+000	0.000652109
2	0	0	1	0	0	0	663.034	-0.749999	-0.750305	-0.869475	-0.136254	-0.136254	11	-0.0378483	0	0.0378483	0.000000000000000E+000	0.0378483	0.0000000E+000	0.000000000000000E+000	0.000652372
2	0	0	1	0	0	0	664.234	-0.749999	-0.750439	-0.868699	-0.137295	-0.137295	11	-0.0381375	0	0.0381375	0.000000000000000E+000	0.0381375	0.0000000E+000	0.000000000000000E+000	0.000651906
2	0	0	1	0	0	0	665.434	-0.749999	-0.75042	-0.867889	-0.138336	-0.138336	11	-0.0384267	0	0.0384267	0.000000000000000E+000	0.0384267	0.0000000E+000	0.000000000000000E+000	0.000651281
2	0	0	1	0	0	0	666.634	-0.749999	-0.750401	-0.866288	-0.139377	-0.139377	11	-0.0387158	0	0.0387158	0.000000000000000E+000	0.0387158	0.0000000E+000	0.000000000000000E+000	0.000650063
2	0	0	1	0	0	0	667.834	-0.749999	-0.750496	-0.865526	-0.140418	-0.140418	11	-0.0390049	0	0.0390049	0.000000000000000E+000	0.0390049	0.0000000E+000	0.000000000000000E+000	0.000649573
2	0	0	1	0	0	0	669.034	-0.749999	-0.750534	-0.865575	-0.141458	-0.141458	11	-0.0392939	0	0.0392939	0.000000000000000E+000	0.0392939	0.0000000E+000	0.000000000000000E+000	0.000649644
2	0	0	1	0	0	0	670.234	-0.749999	-0.75042	-0.865578	-0.142498	-0.142498	11	-0.0395829	0	0.0395829	0.000000000000000E+000	0.0395829	0.0000000E+000	0.000000000000000E+000	0.000649547
2	0	0	1	0	0	0	671.434	-0.749999	-0.750477	-0.865963	-0.143539	-0.143539	11	-0.0398718	0	0.0398718	0.000000000000000E+000	0.0398718	0.0000000E+000	0.000000000000000E+000	0.000649885
2	0	0	1	0	0	0	672.634	-0.749999	-0.750458	-0.865078	-0.144578	-0.144578	11	-0.0401606	0	0.0401606	0.000000000000000E+000	0.0401606	0.0000000E+000	0.000000000000000E+000	0.000649204
2	0	0	1	0	0	0	673.834	-0.749999	-0.750362	-0.865389	-0.145617	-0.145617	11	-0.0404492	0	0.0404492	0.000000000000000E+000	0.0404492	0.0000000E+000	0.000000000000000E+000	0.000649356
2	0	0	1	0	0	0	675.034	-0.749999	-0.750458	-0.876697	-0.146662	-0.146662	11	-0.0407396	0	0.0407396	0.000000000000000E+000	0.0407396	0.0000000E+000	0.000000000000000E+000	0.000657924
2	0	0	1	0	0	0	676.234	-0.749999	-0.750401	-0.886722	-0.147721	-0.147721	11	-0.0410337	0	0.0410337	0.000000000000000E+000	0.0410337	0.0000000E+000	0.000000000000000E+000	0.000665397
2	0	0	1	0	0	0	677.434	-0.749999	-0.750458	-0.892585	-0.148789	-0.148789	11	-0.0413303	0	0.0413303	0.000000000000000E+000	0.0413303	0.0000000E+000	0.000000000000000E+000	0.000669848
2	0	0	1	0	0	0	678.634	-0.749999	-0.750401	-0.893535	-0.149862	-0.149862	11	-0.0416282	0	0.0416282	0.000000000000000E+000	0.0416282	0.0000000E+000	0.000000000000000E+000	0.000670509
2	0	0	1	0	0	0	679.834	-0.749999	-0.750343	-0.897832	-0.150938	-0.150938	11	-0.0419271	0	0.0419271	0.000000000000000E+000	0.0419271	0.0000000E+000	0.000000000000000E+000	0.000673682
2	0	0	1	0	0	0	681.034	-0.749999	-0.750362	-0.900662	-0.152017	-0.152017	11	-0.0422269	0	0.0422269	0.000000000000000E+000	0.0422269	0.0000000E+000	0.000000000000000E+000	0.000675823
2	0	0	1	0	0	0	682.234	-0.749999	-0.750401	-0.901672	-0.153097	-0.153097	11	-0.0425269	0	0.0425269	0.000000000000000E+000	0.0425269	0.0000000E+000	0.000000000000000E+000	0.000676615
2	0	0	1	0	0	0	683.434	-0.749999	-0.750477	-0.899577	-0.154178	-0.154178	11	-0.0428272	0	0.0428272	0.000000000000000E+000	0.0428272	0.0000000E+000	0.000000000000000E+000	0.000675112
2	0	0	1	0	0	0	684.634	-0.749999	-0.750477	-0.901789	-0.15526	-0.15526	11	-0.0431278	0	0.0431278	0.000000000000000E+000	0.0431278	0.0000000E+000	0.000000000000000E+000	0.000676772
2	0	0	1	0	0	0	685.834	-0.749999	-0.750401	-0.90264	-0.156343	-0.156343	11	-0.0434285	0	0.0434285	0.000000000000000E+000	0.0434285	0.0000000E+000	0.000000000000000E+000	0.000677341
2	0	0	1	0	0	0	687.034	-0.749999	-0.750343	-0.90417	-0.157426	-0.157426	11	-0.0437293	0	0.0437293	0.000000000000000E+000	0.0437293	0.0000000E+000	0.000000000000000E+000	0.000678438
2	0	0	1	0	0	0	688.234	-0.749999	-0.750458	-0.901896	-0.158509	-0.158509	11	-0.0440303	0	0.0440303	0.000000000000000E+000	0.0440303	0.0000000E+000	0.000000000000000E+000	0.000676835
2	0	0	1	0	0	0	689.434	-0.749999	-0.750515	-0.902952	-0.159593	-0.159593	11	-0.0443315	0	0.0443315	0.000000000000000E+000	0.0443315	0.0000000E+000	0.000000000000000E+000	0.000677679
2	0	0	1	0	0	0	690.634	-0.749999	-0.750401	-0.903651	-0.160677	-0.160677	11	-0.0446326	0	0.0446326	0.000000000000000E+000	0.0446326	0.0000000E+000	0.000000000000000E+000	0.0006781
2	0	0	1	0	0	0	691.834	-0.749999	-0.750401	-0.904479	-0.161761	-0.161761	11	-0.0449336	0	0.0449336	0.000000000000000E+000	0.0449336	0.0000000E+000	0.000000000000000E+000	0.000678722
2	0	0	1	0	0	0	693.034	-0.749999	-0.750401	-0.901733	-0.162844	-0.162844	11	-0.0452345	0	0.0452345	0.000000000000000E+000	0.0452345	0.0000000E+000	0.000000000000000E+000	0.000676661
2	0	0	1	0	0	0	694.234	-0.749999	-0.75042	-0.902352	-0.163927	-0.163927	11	-0.0455354	0	0.0455354	0.000000000000000E+000	0.0455354	0.0000000E+000	0.000000000000000E+000	0.000677143
2	0	0	1	0	0	0	695.434	-0.749999	-0.750458	-0.9026	-0.16501	-0.16501	11	-0.0458362	0	0.0458362	0.000000000000000E+000	0.0458362	0.0000000E+000	0.000000000000000E+000	0.000677363
2	0	0	1	0	0	0	696.634	-0.749999	-0.750324	-0.90522	-0.166094	-0.166094	11	-0.0461372	0	0.0461372	0.000000000000000E+000	0.0461372	0.0000000E+000	0.000000000000000E+000	0.000679209
2	0	0	1	0	0	0	697.834	-0.749999	-0.750401	-0.928579	-0.167198	-0.167198	11	-0.0464438	0	0.0464438	0.000000000000000E+000	0.0464438	0.0000000E+000	0.000000000000000E+000	0.000696806
2	0	0	1	0	0	0	699.034	-0.749999	-0.750458	-0.936397	-0.168318	-0.168318	11	-0.0467549	0	0.0467549	0.000000000000000E+000	0.0467549	0.0000000E+000	0.000000000000000E+000	0.000702727
2	0	0	1	0	0	0	700.234	-0.749999	-0.750439	-0.943043	-0.169446	-0.169446	11	-0.0470685	0	0.0470685	0.000000000000000E+000	0.0470685	0.0000000E+000	0.000000000000000E+000	0.000707696
2	0	0	1	0	0	0	701.434	-0.749999	-0.750534	-0.946092	-0.17058	-0.17058	11	-0.0473832	0	0.0473832	0.000000000000000E+000	0.0473832	0.0000000E+000	0.000000000000000E+000	0.000710074
2	0	0	1	0	0	0	702.634	-0.749999	-0.750362	-0.946803	-0.171716	-0.171716	11	-0.0476988	0	0.0476988	0.000000000000000E+000	0.0476988	0.0000000E+000	0.000000000000000E+000	0.000710446
2	0	0	1	0	0	0	703.834	-0.749999	-0.750286	-0.951093	-0.172854	-0.172854	11	-0.0480151	0	0.0480151	0.000000000000000E+000	0.0480151	0.0000000E+000	0.000000000000000E+000	0.000713592
2	0	0	1	0	0	0	705.034	-0.749999	-0.750458	-0.950398	-0.173995	-0.173995	11	-0.0483319	0	0.0483319	0.000000000000000E+000	0.0483319	0.0000000E+000	0.000000000000000E+000	0.000713234
2	0	0	1	0	0	0	706.234	-0.749999	-0.750267	-0.950407	-0.175136	-0.175136	11	-0.0486489	0	0.0486489	0.000000000000000E+000	0.0486489	0.0000000E+000	0.000000000000000E+000	0.000713059
2	0	0	1	0	0	0	707.434	-0.749999	-0.750343	-0.952968	-0.176278	-0.176278	11	-0.0489661	0	0.0489661	0.000000000000000E+000	0.0489661	0.0000000E+000	0.000000000000000E+000	0.000715053
2	0	0	1	0	0	0	708.634	-0.749999	-0.750305	-0.95129	-0.17742	-0.17742	11	-0.0492834	0	0.0492834	0.000000000000000E+000	0.0492834	0.0000000E+000	0.000000000000000E+000	0.000713758
2	0	0	1	0	0	0	709.834	-0.749999	-0.750343	-0.952465	-0.178563	-0.178563	11	-0.0496008	0	0.0496008	0.000000000000000E+000	0.0496008	0.0000000E+000	0.000000000000000E+000	0.000714676
2	0	0	1	0	0	0	711.034	-0.749999	-0.750381	-0.952738	-0.179706	-0.179706	11	-0.0499183	0	0.0499183	0.000000000000000E+000	0.0499183	0.0000000E+000	0.000000000000000E+000	0.000714917
2	0	0	1	0	0	0	712.234	-0.749999	-0.750401	-0.951515	-0.180849	-0.180849	11	-0.0502357	0	0.0502357	0.000000000000000E+000	0.0502357	0.0000000E+000	0.000000000000000E+000	0.000714017
2	0	0	1	0	0	0	713.434	-0.749999	-0.750439	-0.953956	-0.181992	-0.181992	11	-0.0505533	0	0.0505533	0.000000000000000E+000	0.0505533	0.0000000E+000	0.000000000000000E+000	0.000715886
2	0	0	1	0	0	0	714.634	-0.749999	-0.750267	-0.951216	-0.183134	-0.183134	11	-0.0508706	0	0.0508706	0.000000000000000E+000	0.0508706	0.0000000E+000	0.000000000000000E+000	0.000713666
2	0	0	1	0	0	0	715.834	-0.749999	-0.750401	-0.949116	-0.184275	-0.184275	11	-0.0511875	0	0.0511875	0.000000000000000E+000	0.0511875	0.0000000E+000	0.000000000000000E+000	0.000712217
2	0	0	1	0	0	0	717.034	-0.749999	-0.750477	-0.953318	-0.185416	-0.185416	11	-0.0515046	0	0.0515046	0.000000000000000E+000	0.0515046	0.0000000E+000	0.000000000000000E+000	0.000715443
2	0	0	1	0	0	0	718.234	-0.749999	-0.75042	-0.949623	-0.186558	-0.186558	11	-0.0518216	0	0.0518216	0.000000000000000E+000	0.0518216	0.0000000E+000	0.000000000000000E+000	0.000712616
2	0	0	1	0	0	0	719.434	-0.749999	-0.75042	-0.951076	-0.187699	-0.187699	11	-0.0521386	0	0.0521386	0.000000000000000E+000	0.0521386	0.0000000E+000	0.000000000000000E+000	0.000713706
2	0	0	1	0	0	0	720.634	-0.749999	-0.750496	-0.950822	-0.18884	-0.18884	11	-0.0524554	0	0.0524554	0.000000000000000E+000	0.0524554	0.0000000E+000	0.000000000000000E+000	0.000713588
2	0	0	1	0	0	0	721.834	-0.749999	-0.750343	-0.948936	-0.18998	-0.18998	11	-0.0527722	0	0.0527722	0.000000000000000E+000	0.0527722	0.0000000E+000	0.000000000000000E+000	0.000712028
2	0	0	1	0	0	0	723.034	-0.749999	-0.750458	-0.963649	-0.191127	-0.191127	11	-0.0530908	0	0.0530908	0.000000000000000E+000	0.0530908	0.0000000E+000	0.000000000000000E+000	0.000723178
2	0	0	1	0	0	0	724.234	-0.749999	-0.750401	-0.976811	-0.192294	-0.192294	11	-0.0534149	0	0.0534149	0.000000000000000E+000	0.0534149	0.0000000E+000	0.000000000000000E+000	0.000732999
2	0	0	1	0	0	0	725.434	-0.749999	-0.75042	-0.982027	-0.193469	-0.193469	11	-0.0537413	0	0.0537413	0.000000000000000E+000	0.0537413	0.0000000E+000	0.000000000000000E+000	0.000736932
2	0	0	1	0	0	0	726.634	-0.749999	-0.750286	-0.983253	-0.194648	-0.194648	11	-0.054069	0	0.054069	0.000000000000000E+000	0.054069	0.0000000E+000	0.000000000000000E+000	0.000737721
2	0	0	1	0	0	0	727.834	-0.749999	-0.750534	-0.985676	-0.19583	-0.19583	11	-0.0543973	0	0.0543973	0.000000000000000E+000	0.0543973	0.0000000E+000	0.000000000000000E+000	0.000739784
2	0	0	1	0	0	0	729.034	-0.749999	-0.750381	-0.981364	-0.197009	-0.197009	11	-0.0547248	0	0.0547248	0.000000000000000E+000	0.0547248	0.0000000E+000	0.000000000000000E+000	0.000736397
2	0	0	1	0	0	0	730.234	-0.749999	-0.750324	-0.984296	-0.198189	-0.198189	11	-0.0550524	0	0.0550524	0.000000000000000E+000	0.0550524	0.0000000E+000	0.000000000000000E+000	0.000738541
2	0	0	1	0	0	0	731.434	-0.749999	-0.750381	-0.987087	-0.199372	-0.199372	11	-0.0553811	0	0.0553811	0.000000000000000E+000	0.0553811	0.0000000E+000	0.000000000000000E+000	0.000740692
2	0	0	1	0	0	0	732.634	-0.749999	-0.75042	-0.985948	-0.200556	-0.200556	11	-0.0557101	0	0.0557101	0.000000000000000E+000	0.0557101	0.0000000E+000	0.000000000000000E+000	0.000739875
2	0	0	1	0	0	0	733.834	-0.749999	-0.750553	-0.989647	-0.201741	-0.201741	11	-0.0560392	0	0.0560392	0.000000000000000E+000	0.0560392	0.0000000E+000	0.000000000000000E+000	0.000742783
2	0	0	1	0	0	0	735.034	-0.749999	-0.75042	-0.987377	-0.202927	-0.202927	11	-0.0563686	0	0.0563686	0.000000000000000E+000	0.0563686	0.0000000E+000	0.000000000000000E+000	0.000740947
2	0	0	1	0	0	0	736.234	-0.749999	-0.750496	-0.989283	-0.204113	-0.204113	11	-0.0566982	0	0.0566982	0.000000000000000E+000	0.0566982	0.0000000E+000	0.000000000000000E+000	0.000742453
2	0	0	1	0	0	0	737.434	-0.749999	-0.75042	-0.988477	-0.2053	-0.2053	11	-0.0570277	0	0.0570277	0.000000000000000E+000	0.0570277	0.0000000E+000	0.000000000000000E+000	0.000741773
2	0	0	1	0	0	0	738.634	-0.749999	-0.750458	-0.988167	-0.206486	-0.206486	11	-0.0573572	0	0.0573572	0.000000000000000E+000	0.0573572	0.0000000E+000	0.000000000000000E+000	0.000741578
2	0	0	1	0	0	0	739.834	-0.749999	-0.750401	-0.990562	-0.207673	-0.207673	11	-0.0576871	0	0.0576871	0.000000000000000E+000	0.0576871	0.0000000E+000	0.000000000000000E+000	0.000743318
2	0	0	1	0	0	0	741.034	-0.749999	-0.750381	-0.987376	-0.20886	-0.20886	11	-0.0580168	0	0.0580168	0.000000000000000E+000	0.0580168	0.0000000E+000	0.000000000000000E+000	0.000740909
2	0	0	1	0	0	0	742.234	-0.749999	-0.750343	-0.991724	-0.210049	-0.210049	11	-0.058347	0	0.058347	0.000000000000000E+000	0.058347	0.0000000E+000	0.000000000000000E+000	0.000744133
2	0	0	1	0	0	0	743.434	-0.749999	-0.750381	-0.98921	-0.211237	-0.211237	11	-0.058677	0	0.058677	0.000000000000000E+000	0.058677	0.0000000E+000	0.000000000000000E+000	0.000742285
2	0	0	1	0	0	0	744.634	-0.749999	-0.750439	-0.987784	-0.212424	-0.212424	11	-0.0590068	0	0.0590068	0.000000000000000E+000	0.0590068	0.0000000E+000	0.000000000000000E+000	0.000741271
2	0	0	1	0	0	0	745.834	-0.749999	-0.750343	-0.990173	-0.213611	-0.213611	11	-0.0593365	0	0.0593365	0.000000000000000E+000	0.0593365	0.0000000E+000	0.000000000000000E+000	0.000742969
2	0	0	1	0	0	0	747.034	-0.749999	-0.75042	-0.988776	-0.214799	-0.214799	11	-0.0596663	0	0.0596663	0.000000000000000E+000	0.0596663	0.0000000E+000	0.000000000000000E+000	0.000741997
2	0	0	1	0	0	0	748.234	-0.749999	-0.750362	-0.99126	-0.215987	-0.215987	11	-0.0599964	0	0.0599964	0.000000000000000E+000	0.0599964	0.0000000E+000	0.000000000000000E+000	0.000743805
2	0	0	1	0	0	0	749.434	-0.749999	-0.750458	-0.988804	-0.217174	-0.217174	11	-0.0603262	0	0.0603262	0.000000000000000E+000	0.0603262	0.0000000E+000	0.000000000000000E+000	0.000742056
2	0	0	1	0	0	0	750.634	-0.749999	-0.750534	-0.988431	-0.218361	-0.218361	11	-0.0606559	0	0.0606559	0.000000000000000E+000	0.0606559	0.0000000E+000	0.000000000000000E+000	0.000741851
2	0	0	1	0	0	0	751.834	-0.749999	-0.75042	-0.989411	-0.219547	-0.219547	11	-0.0609854	0	0.0609854	0.000000000000000E+000	0.0609854	0.0000000E+000	0.000000000000000E+000	0.000742474
2	0	0	1	0	0	0	753.034	-0.749999	-0.750496	-0.986747	-0.220733	-0.220733	11	-0.0613148	0	0.0613148	0.000000000000000E+000	0.0613148	0.0000000E+000	0.000000000000000E+000	0.00074055
2	0	0	1	0	0	0	754.234	-0.749999	-0.750401	-0.99046	-0.22192	-0.22192	11	-0.0616444	0	0.0616444	0.000000000000000E+000	0.0616444	0.0000000E+000	0.000000000000000E+000	0.000743242
2	0	0	1	0	0	0	755.434	-0.749999	-0.75042	-1.00656	-0.223113	-0.223113	11	-0.0619759	0	0.0619759	0.000000000000000E+000	0.0619759	0.0000000E+000	0.000000000000000E+000	0.000755341
2	0	0	1	0	0	0	756.634	-0.749999	-0.750362	-1.02356	-0.224334	-0.224334	11	-0.0623151	0	0.0623151	0.000000000000000E+000	0.0623151	0.0000000E+000	0.000000000000000E+000	0.00076804
2	0	0	1	0	0	0	757.834	-0.749999	-0.750477	-1.03009	-0.225567	-0.225567	11	-0.0626576	0	0.0626576	0.000000000000000E+000	0.0626576	0.0000000E+000	0.000000000000000E+000	0.000773056
2	0	0	1	0	0	0	759.034	-0.749999	-0.750439	-1.03486	-0.226807	-0.226807	11	-0.0630019	0	0.0630019	0.000000000000000E+000	0.0630019	0.0000000E+000	0.000000000000000E+000	0.000776597
2	0	0	1	0	0	0	760.234	-0.749999	-0.75042	-1.03557	-0.228049	-0.228049	11	-0.063347	0	0.063347	0.000000000000000E+000	0.063347	0.0000000E+000	0.000000000000000E+000	0.000777116
2	0	0	1	0	0	0	761.434	-0.749999	-0.750286	-1.03671	-0.229293	-0.229293	11	-0.0636925	0	0.0636925	0.000000000000000E+000	0.0636925	0.0000000E+000	0.000000000000000E+000	0.00077783
2	0	0	1	0	0	0	762.634	-0.749999	-0.750439	-1.03721	-0.230538	-0.230538	11	-0.0640382	0	0.0640382	0.000000000000000E+000	0.0640382	0.0000000E+000	0.000000000000000E+000	0.00077836
2	0	0	1	0	0	0	763.834	-0.749999	-0.750496	-1.0376	-0.231783	-0.231783	11	-0.0643841	0	0.0643841	0.000000000000000E+000	0.0643841	0.0000000E+000	0.000000000000000E+000	0.000778711
2	0	0	1	0	0	0	765.034	-0.749999	-0.750324	-1.03835	-0.233028	-0.233028	11	-0.0647301	0	0.0647301	0.000000000000000E+000	0.0647301	0.0000000E+000	0.000000000000000E+000	0.0007791
2	0	0	1	0	0	0	766.234	-0.749999	-0.750496	-1.03876	-0.234275	-0.234275	11	-0.0650763	0	0.0650763	0.000000000000000E+000	0.0650763	0.0000000E+000	0.000000000000000E+000	0.000779584
2	0	0	1	0	0	0	767.434	-0.749999	-0.750458	-1.03898	-0.235521	-0.235521	11	-0.0654225	0	0.0654225	0.000000000000000E+000	0.0654225	0.0000000E+000	0.000000000000000E+000	0.000779712
2	0	0	1	0	0	0	768.634	-0.749999	-0.75042	-1.03915	-0.236768	-0.236768	11	-0.0657688	0	0.0657688	0.000000000000000E+000	0.0657688	0.0000000E+000	0.000000000000000E+000	0.000779801
2	0	0	1	0	0	0	769.834	-0.749999	-0.750362	-1.03932	-0.238014	-0.238014	11	-0.0661151	0	0.0661151	0.000000000000000E+000	0.0661151	0.0000000E+000	0.000000000000000E+000	0.00077987
2	0	0	1	0	0	0	771.034	-0.749999	-0.75021	-1.03869	-0.239262	-0.239262	11	-0.0664616	0	0.0664616	0.000000000000000E+000	0.0664616	0.0000000E+000	0.000000000000000E+000	0.000779232
2	0	0	1	0	0	0	772.234	-0.749999	-0.750458	-1.03872	-0.240508	-0.240508	11	-0.0668078	0	0.0668078	0.000000000000000E+000	0.0668078	0.0000000E+000	0.000000000000000E+000	0.000779517
2	0	0	1	0	0	0	773.434	-0.749999	-0.750477	-1.03896	-0.241755	-0.241755	11	-0.0671541	0	0.0671541	0.000000000000000E+000	0.0671541	0.0000000E+000	0.000000000000000E+000	0.000779714
2	0	0	1	0	0	0	774.634	-0.749999	-0.750362	-1.03866	-0.243001	-0.243001	11	-0.0675004	0	0.0675004	0.000000000000000E+000	0.0675004	0.0000000E+000	0.000000000000000E+000	0.000779369
2	0	0	1	0	0	0	775.834	-0.749999	-0.750458	-1.03822	-0.244248	-0.244248	11	-0.0678465	0	0.0678465	0.000000000000000E+000	0.0678465	0.0000000E+000	0.000000000000000E+000	0.000779143
2	0	0	1	0	0	0	777.034	-0.749999	-0.750515	-1.03834	-0.245493	-0.245493	11	-0.0681926	0	0.0681926	0.000000000000000E+000	0.0681926	0.0000000E+000	0.000000000000000E+000	0.000779293
2	0	0	1	0	0	0	778.234	-0.749999	-0.75042	-1.0389	-0.24674	-0.24674	11	-0.0685389	0	0.0685389	0.000000000000000E+000	0.0685389	0.0000000E+000	0.000000000000000E+000	0.000779614
2	0	0	1	0	0	0	779.434	-0.749999	-0.750381	-1.0387	-0.247986	-0.247986	11	-0.0688851	0	0.0688851	0.000000000000000E+000	0.0688851	0.0000000E+000	0.000000000000000E+000	0.000779421
2	0	0	1	0	0	0	780.634	-0.749999	-0.750401	-1.03854	-0.249233	-0.249233	11	-0.0692313	0	0.0692313	0.000000000000000E+000	0.0692313	0.0000000E+000	0.000000000000000E+000	0.00077932
2	0	0	1	0	0	0	781.834	-0.749999	-0.750515	-1.03838	-0.250479	-0.250479	11	-0.0695774	0	0.0695774	0.000000000000000E+000	0.0695774	0.0000000E+000	0.000000000000000E+000	0.000779322
2	0	0	1	0	0	0	783.034	-0.749999	-0.75042	-1.05089	-0.251731	-0.251731	11	-0.0699252	0	0.0699252	0.000000000000000E+000	0.0699252	0.0000000E+000	0.000000000000000E+000	0.000788609
2	0	0	1	0	0	0	784.234	-0.749999	-0.750362	-1.05669	-0.252995	-0.252995	11	-0.0702765	0	0.0702765	0.000000000000000E+000	0.0702765	0.0000000E+000	0.000000000000000E+000	0.0007929
2	0	0	1	0	0	0	785.434	-0.749999	-0.75042	-1.05916	-0.254265	-0.254265	11	-0.070629	0	0.070629	0.000000000000000E+000	0.070629	0.0000000E+000	0.000000000000000E+000	0.000794817
2	0	0	1	0	0	0	786.634	-0.749999	-0.750362	-1.06053	-0.255536	-0.255536	11	-0.0709822	0	0.0709822	0.000000000000000E+000	0.0709822	0.0000000E+000	0.000000000000000E+000	0.000795781
2	0	0	1	0	0	0	787.834	-0.749999	-0.750381	-1.06094	-0.256809	-0.256809	11	-0.0713358	0	0.0713358	0.000000000000000E+000	0.0713358	0.0000000E+000	0.000000000000000E+000	0.000796111
2	0	0	1	0	0	0	789.034	-0.749999	-0.75042	-1.06061	-0.258082	-0.258082	11	-0.0716895	0	0.0716895	0.000000000000000E+000	0.0716895	0.0000000E+000	0.000000000000000E+000	0.000795901
2	0	0	1	0	0	0	790.234	-0.749999	-0.750362	-1.06107	-0.259356	-0.259356	11	-0.0720434	0	0.0720434	0.000000000000000E+000	0.0720434	0.0000000E+000	0.000000000000000E+000	0.000796184
2	0	0	1	0	0	0	791.434	-0.749999	-0.750343	-1.06151	-0.260631	-0.260631	11	-0.0723976	0	0.0723976	0.000000000000000E+000	0.0723976	0.0000000E+000	0.000000000000000E+000	0.000796496
2	0	0	1	0	0	0	792.634	-0.749999	-0.750458	-1.06137	-0.261906	-0.261906	11	-0.0727518	0	0.0727518	0.000000000000000E+000	0.0727518	0.0000000E+000	0.000000000000000E+000	0.000796517
2	0	0	1	0	0	0	793.834	-0.749999	-0.750458	-1.06186	-0.263181	-0.263181	11	-0.0731059	0	0.0731059	0.000000000000000E+000	0.0731059	0.0000000E+000	0.000000000000000E+000	0.000796884
2	0	0	1	0	0	0	795.034	-0.749999	-0.750381	-1.06182	-0.264456	-0.264456	11	-0.07346	0	0.07346	0.000000000000000E+000	0.07346	0.0000000E+000	0.000000000000000E+000	0.000796768
2	0	0	1	0	0	0	796.234	-0.749999	-0.750401	-1.06205	-0.26573	-0.26573	11	-0.0738138	0	0.0738138	0.000000000000000E+000	0.0738138	0.0000000E+000	0.000000000000000E+000	0.00079696
2	0	0	1	0	0	0	797.434	-0.749999	-0.750381	-1.0622	-0.267004	-0.267004	11	-0.0741677	0	0.0741677	0.000000000000000E+000	0.0741677	0.0000000E+000	0.000000000000000E+000	0.000797056
2	0	0	1	0	0	0	798.634	-0.749999	-0.750401	-1.06247	-0.268278	-0.268278	11	-0.0745217	0	0.0745217	0.000000000000000E+000	0.0745217	0.0000000E+000	0.000000000000000E+000	0.000797277
2	0	0	1	0	0	0	799.834	-0.749999	-0.750324	-1.06216	-0.269552	-0.269552	11	-0.0748756	0	0.0748756	0.000000000000000E+000	0.0748756	0.0000000E+000	0.000000000000000E+000	0.000796968
2	0	0	1	0	0	0	801.034	-0.749999	-0.750381	-1.06275	-0.270826	-0.270826	11	-0.0752295	0	0.0752295	0.000000000000000E+000	0.0752295	0.0000000E+000	0.000000000000000E+000	0.000797468
2	0	0	1	0	0	0	802.234	-0.749999	-0.750248	-1.06176	-0.2721	-0.2721	11	-0.0755834	0	0.0755834	0.000000000000000E+000	0.0755834	0.0000000E+000	0.000000000000000E+000	0.000796583
2	0	0	1	0	0	0	803.434	-0.749999	-0.750324	-1.06076	-0.273373	-0.273373	11	-0.0759371	0	0.0759371	0.000000000000000E+000	0.0759371	0.0000000E+000	0.000000000000000E+000	0.000795911
2	0	0	1	0	0	0	804.634	-0.749999	-0.750477	-1.05927	-0.274646	-0.274646	11	-0.0762904	0	0.0762904	0.000000000000000E+000	0.0762904	0.0000000E+000	0.000000000000000E+000	0.000794955
2	0	0	1	0	0	0	805.834	-0.749999	-0.750458	-1.05937	-0.275917	-0.275917	11	-0.0766436	0	0.0766436	0.000000000000000E+000	0.0766436	0.0000000E+000	0.000000000000000E+000	0.000795012
2	0	0	1	0	0	0	807.034	-0.749999	-0.750439	-1.05906	-0.277189	-0.277189	11	-0.0769969	0	0.0769969	0.000000000000000E+000	0.0769969	0.0000000E+000	0.000000000000000E+000	0.000794757
2	0	0	1	0	0	0	808.234	-0.749999	-0.750439	-1.05929	-0.278461	-0.278461	11	-0.0773502	0	0.0773502	0.000000000000000E+000	0.0773502	0.0000000E+000	0.000000000000000E+000	0.000794936
2	0	0	1	0	0	0	809.434	-0.749999	-0.750381	-1.07933	-0.279742	-0.279742	11	-0.0777061	0	0.0777061	0.000000000000000E+000	0.0777061	0.0000000E+000	0.000000000000000E+000	0.000809907
2	0	0	1	0	0	0	810.634	-0.749999	-0.75042	-1.08532	-0.281041	-0.281041	11	-0.078067	0	0.078067	0.000000000000000E+000	0.078067	0.0000000E+000	0.000000000000000E+000	0.000814447
2	0	0	1	0	0	0	811.834	-0.749999	-0.750515	-1.08872	-0.282346	-0.282346	11	-0.0784294	0	0.0784294	0.000000000000000E+000	0.0784294	0.0000000E+000	0.000000000000000E+000	0.0008171
2	0	0	1	0	0	0	813.034	-0.749999	-0.750439	-1.09082	-0.283654	-0.283654	11	-0.0787927	0	0.0787927	0.000000000000000E+000	0.0787927	0.0000000E+000	0.000000000000000E+000	0.000818593
2	0	0	1	0	0	0	814.234	-0.749999	-0.750496	-1.09162	-0.284963	-0.284963	11	-0.0791563	0	0.0791563	0.000000000000000E+000	0.0791563	0.0000000E+000	0.000000000000000E+000	0.000819255
2	0	0	1	0	0	0	815.434	-0.749999	-0.750458	-1.09202	-0.286273	-0.286273	11	-0.0795202	0	0.0795202	0.000000000000000E+000	0.0795202	0.0000000E+000	0.000000000000000E+000	0.000819519
2	0	0	1	0	0	0	816.634	-0.749999	-0.750458	-1.09238	-0.287583	-0.287583	11	-0.0798843	0	0.0798843	0.000000000000000E+000	0.0798843	0.0000000E+000	0.000000000000000E+000	0.000819789
2	0	0	1	0	0	0	817.834	-0.749999	-0.750477	-1.09315	-0.288894	-0.288894	11	-0.0802484	0	0.0802484	0.000000000000000E+000	0.0802484	0.0000000E+000	0.000000000000000E+000	0.000820384
2	0	0	1	0	0	0	819.034	-0.749999	-0.750458	-1.09256	-0.290205	-0.290205	11	-0.0806126	0	0.0806126	0.000000000000000E+000	0.0806126	0.0000000E+000	0.000000000000000E+000	0.000819916
2	0	0	1	0	0	0	820.234	-0.749999	-0.750248	-1.09262	-0.291516	-0.291516	11	-0.0809767	0	0.0809767	0.000000000000000E+000	0.0809767	0.0000000E+000	0.000000000000000E+000	0.000819739
2	0	0	1	0	0	0	821.434	-0.749999	-0.750515	-1.09243	-0.292827	-0.292827	11	-0.0813409	0	0.0813409	0.000000000000000E+000	0.0813409	0.0000000E+000	0.000000000000000E+000	0.000819884
2	0	0	1	0	0	0	822.634	-0.749999	-0.750401	-1.09338	-0.294139	-0.294139	11	-0.0817051	0	0.0817051	0.000000000000000E+000	0.0817051	0.0000000E+000	0.000000000000000E+000	0.000820472
2	0	0	1	0	0	0	823.834	-0.749999	-0.75042	-1.09267	-0.29545	-0.29545	11	-0.0820694	0	0.0820694	0.000000000000000E+000	0.0820694	0.0000000E+000	0.000000000000000E+000	0.000819961
2	0	0	1	0	0	0	825.034	-0.749999	-0.750381	-1.09237	-0.296761	-0.296761	11	-0.0824337	0	0.0824337	0.000000000000000E+000	0.0824337	0.0000000E+000	0.000000000000000E+000	0.000819693
2	0	0	1	0	0	0	826.234	-0.749999	-0.750286	-1.09299	-0.298073	-0.298073	11	-0.0827979	0	0.0827979	0.000000000000000E+000	0.0827979	0.0000000E+000	0.000000000000000E+000	0.000820054
2	0	0	1	0	0	0	827.434	-0.749999	-0.750324	-1.0926	-0.299384	-0.299384	11	-0.0831622	0	0.0831622	0.000000000000000E+000	0.0831622	0.0000000E+000	0.000000000000000E+000	0.000819804
2	0	0	1	0	0	0	828.634	-0.749999	-0.750401	-1.09255	-0.300695	-0.300695	11	-0.0835265	0	0.0835265	0.000000000000000E+000	0.0835265	0.0000000E+000	0.000000000000000E+000	0.00081985
2	0	0	1	0	0	0	829.834	-0.749999	-0.750439	-1.09174	-0.302006	-0.302006	11	-0.0838906	0	0.0838906	0.000000000000000E+000	0.0838906	0.0000000E+000	0.000000000000000E+000	0.000819285
2	0	0	1	0	0	0	831.034	-0.749999	-0.750324	-1.09242	-0.303317	-0.303317	11	-0.0842547	0	0.0842547	0.000000000000000E+000	0.0842547	0.0000000E+000	0.000000000000000E+000	0.000819672
2	0	0	1	0	0	0	832.234	-0.749999	-0.750286	-1.0917	-0.304628	-0.304628	11	-0.0846188	0	0.0846188	0.000000000000000E+000	0.0846188	0.0000000E+000	0.000000000000000E+000	0.000819088
2	0	0	1	0	0	0	832.516	-0.749999	-0.750343	-1.09224	-0.304936	-0.304936	11	-0.0847045	0	0.0847045	0.000000000000000E+000	0.0847045	0.0000000E+000	0.000000000000000E+000	0.000819552