File: ZnPVAECH_07 04-22-22-Zn -07 PVA ECH 1600 rpm K-L gc4_03_CA_C05(1).mpt
EC-Lab ASCII FILE
Nb header lines : 66

Chronoamperometry / Chronocoulometry

Run on channel : 5 (SN 6729)
User :
CE vs. WE compliance from -10 V to 10 V
Electrode connection : standard
Potential control : Ewe
Ewe ctrl range : min = -2.50 V, max = 2.50 V
Safety Limits :
	Do not start on E overload
Acquisition started on : 04/04/2022 16:58:56.968
Technique started on : 04/04/2022 17:00:00.629
Loaded Setting File :  NONE
Saved on :
	File : 04-22-22-Zn PVA ECH 1600 rpm K-L gc4_03_CA_C05.mpr
	Directory : \\research-scb.egr.msu.edu\research-scb\Mindy\Koutecky Levich\Zn PVA\ECH\04-04-22\
	Host : 35.9.136.210
Device : VSP (SN 0012)
Address : 35.9.137.65
EC-Lab for windows v11.43 (software)
Internet server v11.40 (firmware)
Command interpretor v11.40 (firmware)
Electrode material : Au/Pd
Initial state :
Electrolyte : NaCl (0.2M)
Comments : Fe(CN)63-/Fe(CN)64- 5.10-3 M
Reference electrode : SCE Saturated Calomel Electrode (0.241 V)
Electrode surface area : 0.196 cm²
Characteristic mass : 0.001 g
Equivalent Weight : 0.000 g/eq.
Density : 0.000 g/cm3
Volume (V) : 0.001 cm³
Cycle Definition : Charge/Discharge alternance
Ei (V)              -0.800
vs.                 Ref
ti (h:m:s)          0:10:0.0000
Imax                pass
unit Imax           mA
Imin                pass
unit Imin           mA
dQM                 0.000
unit dQM            mA.h
record              <I>
dI                  5.000
unit dI             µA
dQ                  0.000
unit dQ             mA.h
dt (s)              0.1000
dta (s)             0.1000
E range min (V)     -2.500
E range max (V)     2.500
I Range             Auto
I Range min         Unset
I Range max         Unset
I Range init        Unset
Bandwidth           5
goto Ns'            0
nc cycles           0

Modify on : 04/04/2022 17:00
Ei (V)              -0.830

mode	ox/red	error	control changes	Ns changes	counter inc.	Ns	time/s	control/V	Ewe/V	<I>/mA	dQ/C	(Q-Qo)/C	I Range	Q charge/discharge/mA.h	half cycle	Q discharge/mA.h	Q charge/mA.h	Capacity/mA.h	Efficiency/%	cycle number	P/W
2	0	0	0	0	0	0	63.6612	-0.830035	-0.830469	-1.64581	-7.2126e-05	-7.2126e-05	11	-2.0035e-05	0	2.0035e-05	0.000000000000000E+000	2.0035e-05	0.0000000E+000	0.000000000000000E+000	0.00136679
2	0	0	0	0	0	0	64.1612	-0.830035	-0.830374	-1.62059	-0.00088482	-0.00088482	11	-0.000245783	0	0.000245783	0.000000000000000E+000	0.000245783	0.0000000E+000	0.000000000000000E+000	0.0013457
2	0	0	0	0	0	0	64.6612	-0.830035	-0.830469	-1.62138	-0.00169528	-0.00169528	11	-0.00047091	0	0.00047091	0.000000000000000E+000	0.00047091	0.0000000E+000	0.000000000000000E+000	0.0013465
2	0	0	0	0	0	0	65.1612	-0.830035	-0.830584	-1.61971	-0.00250538	-0.00250538	11	-0.000695939	0	0.000695939	0.000000000000000E+000	0.000695939	0.0000000E+000	0.000000000000000E+000	0.00134531
2	0	0	0	0	0	0	65.6612	-0.830035	-0.830603	-1.61821	-0.00331519	-0.00331519	11	-0.000920885	0	0.000920885	0.000000000000000E+000	0.000920885	0.0000000E+000	0.000000000000000E+000	0.00134409
2	0	0	0	0	0	0	66.1612	-0.830035	-0.830488	-1.62044	-0.00412505	-0.00412505	11	-0.00114585	0	0.00114585	0.000000000000000E+000	0.00114585	0.0000000E+000	0.000000000000000E+000	0.00134576
2	0	0	0	0	0	0	66.6612	-0.830035	-0.830412	-1.61961	-0.00493473	-0.00493473	11	-0.00137076	0	0.00137076	0.000000000000000E+000	0.00137076	0.0000000E+000	0.000000000000000E+000	0.00134494
2	0	0	0	0	0	0	67.1612	-0.830035	-0.830355	-1.61791	-0.00574397	-0.00574397	11	-0.00159555	0	0.00159555	0.000000000000000E+000	0.00159555	0.0000000E+000	0.000000000000000E+000	0.00134344
2	0	0	0	0	0	0	67.6612	-0.830035	-0.830431	-1.61853	-0.00655307	-0.00655307	11	-0.0018203	0	0.0018203	0.000000000000000E+000	0.0018203	0.0000000E+000	0.000000000000000E+000	0.00134408
2	0	0	0	0	0	0	68.1612	-0.830035	-0.830202	-1.61602	-0.0073617	-0.0073617	11	-0.00204492	0	0.00204492	0.000000000000000E+000	0.00204492	0.0000000E+000	0.000000000000000E+000	0.00134163
2	0	0	0	0	0	0	68.6612	-0.830035	-0.830603	-1.61702	-0.00817014	-0.00817014	11	-0.00226948	0	0.00226948	0.000000000000000E+000	0.00226948	0.0000000E+000	0.000000000000000E+000	0.0013431
2	0	0	0	0	0	0	69.1612	-0.830035	-0.830374	-1.61849	-0.00897874	-0.00897874	11	-0.00249409	0	0.00249409	0.000000000000000E+000	0.00249409	0.0000000E+000	0.000000000000000E+000	0.00134395
2	0	0	0	0	0	0	69.6612	-0.830035	-0.830584	-1.61556	-0.00978687	-0.00978687	11	-0.00271857	0	0.00271857	0.000000000000000E+000	0.00271857	0.0000000E+000	0.000000000000000E+000	0.00134186
2	0	0	0	0	0	0	70.1612	-0.830035	-0.830431	-1.61715	-0.0105956	-0.0105956	11	-0.00294322	0	0.00294322	0.000000000000000E+000	0.00294322	0.0000000E+000	0.000000000000000E+000	0.00134293
2	0	0	0	0	0	0	70.6612	-0.830035	-0.83045	-1.54647	-0.0113809	-0.0113809	11	-0.00316136	0	0.00316136	0.000000000000000E+000	0.00316136	0.0000000E+000	0.000000000000000E+000	0.00128427
2	0	0	0	0	0	0	71.1612	-0.830035	-0.83045	-1.55913	-0.0121583	-0.0121583	11	-0.00337731	0	0.00337731	0.000000000000000E+000	0.00337731	0.0000000E+000	0.000000000000000E+000	0.00129478
2	0	0	0	0	0	0	71.6612	-0.830035	-0.830565	-1.57085	-0.0129418	-0.0129418	11	-0.00359494	0	0.00359494	0.000000000000000E+000	0.00359494	0.0000000E+000	0.000000000000000E+000	0.00130469
2	0	0	0	0	0	0	72.1612	-0.830035	-0.830469	-1.57041	-0.0137274	-0.0137274	11	-0.00381315	0	0.00381315	0.000000000000000E+000	0.00381315	0.0000000E+000	0.000000000000000E+000	0.00130418
2	0	0	0	0	0	0	72.6612	-0.830035	-0.830527	-1.57202	-0.0145132	-0.0145132	11	-0.00403144	0	0.00403144	0.000000000000000E+000	0.00403144	0.0000000E+000	0.000000000000000E+000	0.00130561
2	0	0	0	0	0	0	73.1612	-0.830035	-0.830622	-1.57092	-0.0152986	-0.0152986	11	-0.00424962	0	0.00424962	0.000000000000000E+000	0.00424962	0.0000000E+000	0.000000000000000E+000	0.00130484
2	0	0	0	0	0	0	73.6612	-0.830035	-0.830431	-1.5721	-0.0160842	-0.0160842	11	-0.00446784	0	0.00446784	0.000000000000000E+000	0.00446784	0.0000000E+000	0.000000000000000E+000	0.00130552
2	0	0	0	0	0	0	74.1612	-0.830035	-0.830565	-1.56849	-0.0168697	-0.0168697	11	-0.00468603	0	0.00468603	0.000000000000000E+000	0.00468603	0.0000000E+000	0.000000000000000E+000	0.00130274
2	0	0	0	0	0	0	74.6612	-0.830035	-0.830565	-1.57289	-0.0176556	-0.0176556	11	-0.00490434	0	0.00490434	0.000000000000000E+000	0.00490434	0.0000000E+000	0.000000000000000E+000	0.00130639
2	0	0	0	0	0	0	75.1612	-0.830035	-0.830412	-1.5702	-0.0184411	-0.0184411	11	-0.00512253	0	0.00512253	0.000000000000000E+000	0.00512253	0.0000000E+000	0.000000000000000E+000	0.00130391
2	0	0	0	0	0	0	75.6612	-0.830035	-0.830584	-1.57188	-0.0192267	-0.0192267	11	-0.00534074	0	0.00534074	0.000000000000000E+000	0.00534074	0.0000000E+000	0.000000000000000E+000	0.00130558
2	0	0	0	0	0	0	76.1612	-0.830035	-0.830412	-1.5702	-0.0200121	-0.0200121	11	-0.00555892	0	0.00555892	0.000000000000000E+000	0.00555892	0.0000000E+000	0.000000000000000E+000	0.00130391
2	0	0	0	0	0	0	76.6612	-0.830035	-0.830431	-1.57092	-0.0207979	-0.0207979	11	-0.0057772	0	0.0057772	0.000000000000000E+000	0.0057772	0.0000000E+000	0.000000000000000E+000	0.00130454
2	0	0	0	0	0	0	77.1612	-0.830035	-0.830412	-1.54873	-0.0215767	-0.0215767	11	-0.00599354	0	0.00599354	0.000000000000000E+000	0.00599354	0.0000000E+000	0.000000000000000E+000	0.00128608
2	0	0	0	0	0	0	77.6612	-0.830035	-0.830527	-1.53309	-0.022345	-0.022345	11	-0.00620695	0	0.00620695	0.000000000000000E+000	0.00620695	0.0000000E+000	0.000000000000000E+000	0.00127328
2	0	0	0	0	0	0	78.1612	-0.830035	-0.830508	-1.53429	-0.0231119	-0.0231119	11	-0.00641998	0	0.00641998	0.000000000000000E+000	0.00641998	0.0000000E+000	0.000000000000000E+000	0.00127424
2	0	0	0	0	0	0	78.6612	-0.830035	-0.830546	-1.53501	-0.0238794	-0.0238794	11	-0.00663316	0	0.00663316	0.000000000000000E+000	0.00663316	0.0000000E+000	0.000000000000000E+000	0.00127489
2	0	0	0	0	0	0	79.1612	-0.830035	-0.83045	-1.53645	-0.0246473	-0.0246473	11	-0.00684646	0	0.00684646	0.000000000000000E+000	0.00684646	0.0000000E+000	0.000000000000000E+000	0.00127594
2	0	0	0	0	0	0	79.6612	-0.830035	-0.830355	-1.53762	-0.0254156	-0.0254156	11	-0.00705989	0	0.00705989	0.000000000000000E+000	0.00705989	0.0000000E+000	0.000000000000000E+000	0.00127677
2	0	0	0	0	0	0	80.1612	-0.830035	-0.830412	-1.53709	-0.0261843	-0.0261843	11	-0.00727342	0	0.00727342	0.000000000000000E+000	0.00727342	0.0000000E+000	0.000000000000000E+000	0.00127642
2	0	0	0	0	0	0	80.6612	-0.830035	-0.830336	-1.53704	-0.0269528	-0.0269528	11	-0.00748689	0	0.00748689	0.000000000000000E+000	0.00748689	0.0000000E+000	0.000000000000000E+000	0.00127626
2	0	0	0	0	0	0	81.1612	-0.830035	-0.830488	-1.53704	-0.0277213	-0.0277213	11	-0.00770035	0	0.00770035	0.000000000000000E+000	0.00770035	0.0000000E+000	0.000000000000000E+000	0.0012765
2	0	0	0	0	0	0	81.6612	-0.830035	-0.830412	-1.53732	-0.0284896	-0.0284896	11	-0.00791377	0	0.00791377	0.000000000000000E+000	0.00791377	0.0000000E+000	0.000000000000000E+000	0.00127661
2	0	0	0	0	0	0	82.1612	-0.830035	-0.830488	-1.53654	-0.029258	-0.029258	11	-0.00812723	0	0.00812723	0.000000000000000E+000	0.00812723	0.0000000E+000	0.000000000000000E+000	0.00127608
2	0	0	0	0	0	0	82.6612	-0.830035	-0.830355	-1.53609	-0.0300262	-0.0300262	11	-0.00834062	0	0.00834062	0.000000000000000E+000	0.00834062	0.0000000E+000	0.000000000000000E+000	0.0012755
2	0	0	0	0	0	0	83.1612	-0.830035	-0.830374	-1.53626	-0.0307945	-0.0307945	11	-0.00855402	0	0.00855402	0.000000000000000E+000	0.00855402	0.0000000E+000	0.000000000000000E+000	0.00127567
2	0	0	0	0	0	0	83.6612	-0.830035	-0.830508	-1.53763	-0.0315629	-0.0315629	11	-0.00876748	0	0.00876748	0.000000000000000E+000	0.00876748	0.0000000E+000	0.000000000000000E+000	0.00127701
2	0	0	0	0	0	0	84.1612	-0.830035	-0.830488	-1.5367	-0.0323314	-0.0323314	11	-0.00898094	0	0.00898094	0.000000000000000E+000	0.00898094	0.0000000E+000	0.000000000000000E+000	0.00127621
2	0	0	0	0	0	0	84.6612	-0.830035	-0.830603	-1.53725	-0.0330998	-0.0330998	11	-0.0091944	0	0.0091944	0.000000000000000E+000	0.0091944	0.0000000E+000	0.000000000000000E+000	0.00127685
2	0	0	0	0	0	0	85.1612	-0.830035	-0.830412	-1.53548	-0.0338679	-0.0338679	11	-0.00940775	0	0.00940775	0.000000000000000E+000	0.00940775	0.0000000E+000	0.000000000000000E+000	0.00127508
2	0	0	0	0	0	0	85.6612	-0.830035	-0.830393	-1.5358	-0.0346361	-0.0346361	11	-0.00962114	0	0.00962114	0.000000000000000E+000	0.00962114	0.0000000E+000	0.000000000000000E+000	0.00127532
2	0	0	0	0	0	0	86.1612	-0.830035	-0.83045	-1.53634	-0.0354041	-0.0354041	11	-0.00983448	0	0.00983448	0.000000000000000E+000	0.00983448	0.0000000E+000	0.000000000000000E+000	0.00127585
2	0	0	0	0	0	0	86.6612	-0.830035	-0.830584	-1.53546	-0.0361723	-0.0361723	11	-0.0100479	0	0.0100479	0.000000000000000E+000	0.0100479	0.0000000E+000	0.000000000000000E+000	0.00127533
2	0	0	0	0	0	0	87.1612	-0.830035	-0.830412	-1.5308	-0.0369395	-0.0369395	11	-0.010261	0	0.010261	0.000000000000000E+000	0.010261	0.0000000E+000	0.000000000000000E+000	0.00127119
2	0	0	0	0	0	0	87.6612	-0.830035	-0.830546	-1.49214	-0.0376936	-0.0376936	11	-0.0104704	0	0.0104704	0.000000000000000E+000	0.0104704	0.0000000E+000	0.000000000000000E+000	0.00123929
2	0	0	0	0	0	0	88.1612	-0.830035	-0.830546	-1.46634	-0.0384293	-0.0384293	11	-0.0106748	0	0.0106748	0.000000000000000E+000	0.0106748	0.0000000E+000	0.000000000000000E+000	0.00121786
2	0	0	0	0	0	0	88.6612	-0.830035	-0.830469	-1.45413	-0.0391586	-0.0391586	11	-0.0108774	0	0.0108774	0.000000000000000E+000	0.0108774	0.0000000E+000	0.000000000000000E+000	0.00120761
2	0	0	0	0	0	0	89.1612	-0.830035	-0.830431	-1.45326	-0.0398868	-0.0398868	11	-0.0110797	0	0.0110797	0.000000000000000E+000	0.0110797	0.0000000E+000	0.000000000000000E+000	0.00120684
2	0	0	0	0	0	0	89.6612	-0.830035	-0.830488	-1.45688	-0.0406142	-0.0406142	11	-0.0112817	0	0.0112817	0.000000000000000E+000	0.0112817	0.0000000E+000	0.000000000000000E+000	0.00120992
2	0	0	0	0	0	0	90.1612	-0.830035	-0.830393	-1.45594	-0.0413417	-0.0413417	11	-0.0114838	0	0.0114838	0.000000000000000E+000	0.0114838	0.0000000E+000	0.000000000000000E+000	0.00120901
2	0	0	0	0	0	0	90.6612	-0.830035	-0.830393	-1.45384	-0.042069	-0.042069	11	-0.0116858	0	0.0116858	0.000000000000000E+000	0.0116858	0.0000000E+000	0.000000000000000E+000	0.00120726
2	0	0	0	0	0	0	91.1612	-0.830035	-0.83045	-1.4525	-0.0427964	-0.0427964	11	-0.0118879	0	0.0118879	0.000000000000000E+000	0.0118879	0.0000000E+000	0.000000000000000E+000	0.00120623
2	0	0	0	0	0	0	91.6612	-0.830035	-0.830584	-1.45745	-0.0435238	-0.0435238	11	-0.0120899	0	0.0120899	0.000000000000000E+000	0.0120899	0.0000000E+000	0.000000000000000E+000	0.00121053
2	0	0	0	0	0	0	92.1612	-0.830035	-0.830374	-1.45671	-0.0442512	-0.0442512	11	-0.012292	0	0.012292	0.000000000000000E+000	0.012292	0.0000000E+000	0.000000000000000E+000	0.00120961
2	0	0	0	0	0	0	92.6612	-0.830035	-0.830584	-1.45234	-0.0449785	-0.0449785	11	-0.012494	0	0.012494	0.000000000000000E+000	0.012494	0.0000000E+000	0.000000000000000E+000	0.00120629
2	0	0	0	0	0	0	93.1612	-0.830035	-0.830469	-1.45229	-0.0457058	-0.0457058	11	-0.0126961	0	0.0126961	0.000000000000000E+000	0.0126961	0.0000000E+000	0.000000000000000E+000	0.00120608
2	0	0	0	0	0	0	93.6612	-0.830035	-0.830431	-1.45751	-0.0464331	-0.0464331	11	-0.0128981	0	0.0128981	0.000000000000000E+000	0.0128981	0.0000000E+000	0.000000000000000E+000	0.00121036
2	0	0	0	0	0	0	94.1612	-0.830035	-0.830546	-1.45698	-0.0471607	-0.0471607	11	-0.0131002	0	0.0131002	0.000000000000000E+000	0.0131002	0.0000000E+000	0.000000000000000E+000	0.00121009
2	0	0	0	0	0	0	94.6612	-0.830035	-0.830565	-1.45217	-0.0478877	-0.0478877	11	-0.0133022	0	0.0133022	0.000000000000000E+000	0.0133022	0.0000000E+000	0.000000000000000E+000	0.00120612
2	0	0	0	0	0	0	95.1612	-0.830035	-0.83024	-1.45244	-0.0486152	-0.0486152	11	-0.0135042	0	0.0135042	0.000000000000000E+000	0.0135042	0.0000000E+000	0.000000000000000E+000	0.00120588
2	0	0	0	0	0	0	95.6612	-0.830035	-0.830431	-1.45804	-0.0493431	-0.0493431	11	-0.0137064	0	0.0137064	0.000000000000000E+000	0.0137064	0.0000000E+000	0.000000000000000E+000	0.0012108
2	0	0	0	0	0	0	96.1612	-0.830035	-0.830584	-1.45693	-0.0500709	-0.0500709	11	-0.0139086	0	0.0139086	0.000000000000000E+000	0.0139086	0.0000000E+000	0.000000000000000E+000	0.00121011
2	0	0	0	0	0	0	96.6612	-0.830035	-0.830374	-1.43933	-0.0507962	-0.0507962	11	-0.01411	0	0.01411	0.000000000000000E+000	0.01411	0.0000000E+000	0.000000000000000E+000	0.00119518
2	0	0	0	0	0	0	97.1612	-0.830035	-0.830431	-1.41406	-0.0515076	-0.0515076	11	-0.0143077	0	0.0143077	0.000000000000000E+000	0.0143077	0.0000000E+000	0.000000000000000E+000	0.00117428
2	0	0	0	0	0	0	97.6612	-0.830035	-0.830393	-1.40256	-0.0522092	-0.0522092	11	-0.0145025	0	0.0145025	0.000000000000000E+000	0.0145025	0.0000000E+000	0.000000000000000E+000	0.00116467
2	0	0	0	0	0	0	98.1612	-0.830035	-0.830412	-1.39181	-0.0529063	-0.0529063	11	-0.0146962	0	0.0146962	0.000000000000000E+000	0.0146962	0.0000000E+000	0.000000000000000E+000	0.00115577
2	0	0	0	0	0	0	98.6612	-0.830035	-0.83045	-1.3859	-0.0536012	-0.0536012	11	-0.0148892	0	0.0148892	0.000000000000000E+000	0.0148892	0.0000000E+000	0.000000000000000E+000	0.00115092
2	0	0	0	0	0	0	99.1612	-0.830035	-0.83045	-1.38854	-0.0542961	-0.0542961	11	-0.0150823	0	0.0150823	0.000000000000000E+000	0.0150823	0.0000000E+000	0.000000000000000E+000	0.00115312
2	0	0	0	0	0	0	99.6612	-0.830035	-0.83045	-1.38753	-0.0549905	-0.0549905	11	-0.0152751	0	0.0152751	0.000000000000000E+000	0.0152751	0.0000000E+000	0.000000000000000E+000	0.00115227
2	0	0	0	0	0	0	100.161	-0.830035	-0.830317	-1.38969	-0.0556853	-0.0556853	11	-0.0154682	0	0.0154682	0.000000000000000E+000	0.0154682	0.0000000E+000	0.000000000000000E+000	0.00115388
2	0	0	0	0	0	0	100.661	-0.830035	-0.830488	-1.39365	-0.0563803	-0.0563803	11	-0.0156612	0	0.0156612	0.000000000000000E+000	0.0156612	0.0000000E+000	0.000000000000000E+000	0.00115741
2	0	0	0	0	0	0	101.161	-0.830035	-0.830412	-1.38797	-0.0570743	-0.0570743	11	-0.015854	0	0.015854	0.000000000000000E+000	0.015854	0.0000000E+000	0.000000000000000E+000	0.00115259
2	0	0	0	0	0	0	101.661	-0.830035	-0.830431	-1.38684	-0.0577685	-0.0577685	11	-0.0160468	0	0.0160468	0.000000000000000E+000	0.0160468	0.0000000E+000	0.000000000000000E+000	0.00115168
2	0	0	0	0	0	0	102.161	-0.830035	-0.830508	-1.38834	-0.0584634	-0.0584634	11	-0.0162398	0	0.0162398	0.000000000000000E+000	0.0162398	0.0000000E+000	0.000000000000000E+000	0.00115303
2	0	0	0	0	0	0	102.661	-0.830035	-0.830412	-1.38784	-0.059158	-0.059158	11	-0.0164328	0	0.0164328	0.000000000000000E+000	0.0164328	0.0000000E+000	0.000000000000000E+000	0.00115248
2	0	0	0	0	0	0	103.161	-0.830035	-0.830431	-1.39114	-0.0598526	-0.0598526	11	-0.0166257	0	0.0166257	0.000000000000000E+000	0.0166257	0.0000000E+000	0.000000000000000E+000	0.00115524
2	0	0	0	0	0	0	103.661	-0.830035	-0.830469	-1.39314	-0.0605468	-0.0605468	11	-0.0168186	0	0.0168186	0.000000000000000E+000	0.0168186	0.0000000E+000	0.000000000000000E+000	0.00115696
2	0	0	0	0	0	0	104.161	-0.830035	-0.830393	-1.38766	-0.0612406	-0.0612406	11	-0.0170113	0	0.0170113	0.000000000000000E+000	0.0170113	0.0000000E+000	0.000000000000000E+000	0.0011523
2	0	0	0	0	0	0	104.661	-0.830035	-0.83045	-1.38583	-0.0619347	-0.0619347	11	-0.0172041	0	0.0172041	0.000000000000000E+000	0.0172041	0.0000000E+000	0.000000000000000E+000	0.00115086
2	0	0	0	0	0	0	105.161	-0.830035	-0.830508	-1.38753	-0.0626296	-0.0626296	11	-0.0173971	0	0.0173971	0.000000000000000E+000	0.0173971	0.0000000E+000	0.000000000000000E+000	0.00115235
2	0	0	0	0	0	0	105.661	-0.830035	-0.830431	-1.35776	-0.0633185	-0.0633185	11	-0.0175885	0	0.0175885	0.000000000000000E+000	0.0175885	0.0000000E+000	0.000000000000000E+000	0.00112753
2	0	0	0	0	0	0	106.161	-0.830035	-0.830488	-1.3214	-0.0639882	-0.0639882	11	-0.0177745	0	0.0177745	0.000000000000000E+000	0.0177745	0.0000000E+000	0.000000000000000E+000	0.00109741
2	0	0	0	0	0	0	106.661	-0.830035	-0.830374	-1.31683	-0.0646472	-0.0646472	11	-0.0179575	0	0.0179575	0.000000000000000E+000	0.0179575	0.0000000E+000	0.000000000000000E+000	0.00109346
2	0	0	0	0	0	0	107.161	-0.830035	-0.830374	-1.31226	-0.0653028	-0.0653028	11	-0.0181397	0	0.0181397	0.000000000000000E+000	0.0181397	0.0000000E+000	0.000000000000000E+000	0.00108967
2	0	0	0	0	0	0	107.661	-0.830035	-0.830469	-1.30518	-0.0659567	-0.0659567	11	-0.0183213	0	0.0183213	0.000000000000000E+000	0.0183213	0.0000000E+000	0.000000000000000E+000	0.00108391
2	0	0	0	0	0	0	108.161	-0.830035	-0.830488	-1.30107	-0.0666084	-0.0666084	11	-0.0185023	0	0.0185023	0.000000000000000E+000	0.0185023	0.0000000E+000	0.000000000000000E+000	0.00108053
2	0	0	0	0	0	0	108.661	-0.830035	-0.830412	-1.29794	-0.0672589	-0.0672589	11	-0.018683	0	0.018683	0.000000000000000E+000	0.018683	0.0000000E+000	0.000000000000000E+000	0.00107782
2	0	0	0	0	0	0	109.161	-0.830035	-0.830469	-1.29446	-0.0679084	-0.0679084	11	-0.0188634	0	0.0188634	0.000000000000000E+000	0.0188634	0.0000000E+000	0.000000000000000E+000	0.00107501
2	0	0	0	0	0	0	109.661	-0.830035	-0.830737	-1.30175	-0.0685581	-0.0685581	11	-0.0190439	0	0.0190439	0.000000000000000E+000	0.0190439	0.0000000E+000	0.000000000000000E+000	0.00108141
2	0	0	0	0	0	0	110.161	-0.830035	-0.830488	-1.30312	-0.0692076	-0.0692076	11	-0.0192243	0	0.0192243	0.000000000000000E+000	0.0192243	0.0000000E+000	0.000000000000000E+000	0.00108223
2	0	0	0	0	0	0	110.661	-0.830035	-0.830546	-1.29692	-0.0698564	-0.0698564	11	-0.0194046	0	0.0194046	0.000000000000000E+000	0.0194046	0.0000000E+000	0.000000000000000E+000	0.00107715
2	0	0	0	0	0	0	111.161	-0.830035	-0.830412	-1.29834	-0.0705057	-0.0705057	11	-0.0195849	0	0.0195849	0.000000000000000E+000	0.0195849	0.0000000E+000	0.000000000000000E+000	0.00107816
2	0	0	0	0	0	0	111.661	-0.830035	-0.830431	-1.29905	-0.0711554	-0.0711554	11	-0.0197654	0	0.0197654	0.000000000000000E+000	0.0197654	0.0000000E+000	0.000000000000000E+000	0.00107877
2	0	0	0	0	0	0	112.161	-0.830035	-0.830431	-1.2956	-0.0718048	-0.0718048	11	-0.0199458	0	0.0199458	0.000000000000000E+000	0.0199458	0.0000000E+000	0.000000000000000E+000	0.00107591
2	0	0	0	0	0	0	112.661	-0.830035	-0.830317	-1.29899	-0.0724545	-0.0724545	11	-0.0201262	0	0.0201262	0.000000000000000E+000	0.0201262	0.0000000E+000	0.000000000000000E+000	0.00107858
2	0	0	0	0	0	0	113.161	-0.830035	-0.830488	-1.3057	-0.0731048	-0.0731048	11	-0.0203069	0	0.0203069	0.000000000000000E+000	0.0203069	0.0000000E+000	0.000000000000000E+000	0.00108437
2	0	0	0	0	0	0	113.661	-0.830035	-0.83045	-1.30092	-0.0737547	-0.0737547	11	-0.0204874	0	0.0204874	0.000000000000000E+000	0.0204874	0.0000000E+000	0.000000000000000E+000	0.00108035
2	0	0	0	0	0	0	114.161	-0.830035	-0.830469	-1.2989	-0.0744043	-0.0744043	11	-0.0206679	0	0.0206679	0.000000000000000E+000	0.0206679	0.0000000E+000	0.000000000000000E+000	0.0010787
2	0	0	0	0	0	0	114.661	-0.830035	-0.830488	-1.29868	-0.0750539	-0.0750539	11	-0.0208483	0	0.0208483	0.000000000000000E+000	0.0208483	0.0000000E+000	0.000000000000000E+000	0.00107854
2	0	0	0	0	0	0	115.161	-0.830035	-0.830546	-1.29703	-0.0757036	-0.0757036	11	-0.0210288	0	0.0210288	0.000000000000000E+000	0.0210288	0.0000000E+000	0.000000000000000E+000	0.00107724
2	0	0	0	0	0	0	115.661	-0.830035	-0.830412	-1.29632	-0.0763536	-0.0763536	11	-0.0212093	0	0.0212093	0.000000000000000E+000	0.0212093	0.0000000E+000	0.000000000000000E+000	0.00107648
2	0	0	0	0	0	0	116.161	-0.830035	-0.830546	-1.30271	-0.0770041	-0.0770041	11	-0.02139	0	0.02139	0.000000000000000E+000	0.02139	0.0000000E+000	0.000000000000000E+000	0.00108196
2	0	0	0	0	0	0	116.661	-0.830035	-0.830469	-1.3037	-0.0776542	-0.0776542	11	-0.0215706	0	0.0215706	0.000000000000000E+000	0.0215706	0.0000000E+000	0.000000000000000E+000	0.00108268
2	0	0	0	0	0	0	117.161	-0.830035	-0.830488	-1.29399	-0.078301	-0.078301	11	-0.0217503	0	0.0217503	0.000000000000000E+000	0.0217503	0.0000000E+000	0.000000000000000E+000	0.00107465
2	0	0	0	0	0	0	117.661	-0.830035	-0.830508	-1.27193	-0.0789397	-0.0789397	11	-0.0219277	0	0.0219277	0.000000000000000E+000	0.0219277	0.0000000E+000	0.000000000000000E+000	0.00105635
2	0	0	0	0	0	0	118.161	-0.830035	-0.830374	-1.24756	-0.0795692	-0.0795692	11	-0.0221026	0	0.0221026	0.000000000000000E+000	0.0221026	0.0000000E+000	0.000000000000000E+000	0.00103594
2	0	0	0	0	0	0	118.661	-0.830035	-0.830469	-1.24099	-0.0801926	-0.0801926	11	-0.0222757	0	0.0222757	0.000000000000000E+000	0.0222757	0.0000000E+000	0.000000000000000E+000	0.0010306
2	0	0	0	0	0	0	119.161	-0.830035	-0.830393	-1.23397	-0.0808108	-0.0808108	11	-0.0224474	0	0.0224474	0.000000000000000E+000	0.0224474	0.0000000E+000	0.000000000000000E+000	0.00102468
2	0	0	0	0	0	0	119.661	-0.830035	-0.830565	-1.22903	-0.0814262	-0.0814262	11	-0.0226184	0	0.0226184	0.000000000000000E+000	0.0226184	0.0000000E+000	0.000000000000000E+000	0.00102079
2	0	0	0	0	0	0	120.161	-0.830035	-0.83045	-1.23111	-0.0820398	-0.0820398	11	-0.0227888	0	0.0227888	0.000000000000000E+000	0.0227888	0.0000000E+000	0.000000000000000E+000	0.00102238
2	0	0	0	0	0	0	120.661	-0.830035	-0.830431	-1.22258	-0.0826518	-0.0826518	11	-0.0229588	0	0.0229588	0.000000000000000E+000	0.0229588	0.0000000E+000	0.000000000000000E+000	0.00101527
2	0	0	0	0	0	0	121.161	-0.830035	-0.830546	-1.22206	-0.0832638	-0.0832638	11	-0.0231288	0	0.0231288	0.000000000000000E+000	0.0231288	0.0000000E+000	0.000000000000000E+000	0.00101497
2	0	0	0	0	0	0	121.661	-0.830035	-0.830508	-1.22079	-0.0838751	-0.0838751	11	-0.0232986	0	0.0232986	0.000000000000000E+000	0.0232986	0.0000000E+000	0.000000000000000E+000	0.00101387
2	0	0	0	0	0	0	122.161	-0.830035	-0.830431	-1.2211	-0.0844862	-0.0844862	11	-0.0234684	0	0.0234684	0.000000000000000E+000	0.0234684	0.0000000E+000	0.000000000000000E+000	0.00101404
2	0	0	0	0	0	0	122.661	-0.830035	-0.830603	-1.22404	-0.085097	-0.085097	11	-0.0236381	0	0.0236381	0.000000000000000E+000	0.0236381	0.0000000E+000	0.000000000000000E+000	0.00101669
2	0	0	0	0	0	0	123.161	-0.830035	-0.830488	-1.22461	-0.0857073	-0.0857073	11	-0.0238076	0	0.0238076	0.000000000000000E+000	0.0238076	0.0000000E+000	0.000000000000000E+000	0.00101703
2	0	0	0	0	0	0	123.661	-0.830035	-0.830469	-1.21495	-0.0863176	-0.0863176	11	-0.0239771	0	0.0239771	0.000000000000000E+000	0.0239771	0.0000000E+000	0.000000000000000E+000	0.00100898
2	0	0	0	0	0	0	124.161	-0.830035	-0.830355	-1.22188	-0.0869287	-0.0869287	11	-0.0241468	0	0.0241468	0.000000000000000E+000	0.0241468	0.0000000E+000	0.000000000000000E+000	0.00101459
2	0	0	0	0	0	0	124.661	-0.830035	-0.830317	-1.22129	-0.0875393	-0.0875393	11	-0.0243165	0	0.0243165	0.000000000000000E+000	0.0243165	0.0000000E+000	0.000000000000000E+000	0.00101406
2	0	0	0	0	0	0	125.161	-0.830035	-0.830508	-1.22077	-0.0881502	-0.0881502	11	-0.0244862	0	0.0244862	0.000000000000000E+000	0.0244862	0.0000000E+000	0.000000000000000E+000	0.00101386
2	0	0	0	0	0	0	125.661	-0.830035	-0.830412	-1.22622	-0.0887609	-0.0887609	11	-0.0246558	0	0.0246558	0.000000000000000E+000	0.0246558	0.0000000E+000	0.000000000000000E+000	0.00101827
2	0	0	0	0	0	0	126.161	-0.830035	-0.83045	-1.22048	-0.089371	-0.089371	11	-0.0248253	0	0.0248253	0.000000000000000E+000	0.0248253	0.0000000E+000	0.000000000000000E+000	0.00101355
2	0	0	0	0	0	0	126.661	-0.830035	-0.830488	-1.22032	-0.0899818	-0.0899818	11	-0.0249949	0	0.0249949	0.000000000000000E+000	0.0249949	0.0000000E+000	0.000000000000000E+000	0.00101347
2	0	0	0	0	0	0	127.161	-0.830035	-0.830412	-1.22028	-0.0905926	-0.0905926	11	-0.0251646	0	0.0251646	0.000000000000000E+000	0.0251646	0.0000000E+000	0.000000000000000E+000	0.00101334
2	0	0	0	0	0	0	127.661	-0.830035	-0.830431	-1.22079	-0.0912034	-0.0912034	11	-0.0253343	0	0.0253343	0.000000000000000E+000	0.0253343	0.0000000E+000	0.000000000000000E+000	0.00101378
2	0	0	0	0	0	0	128.161	-0.830035	-0.830508	-1.2233	-0.0918142	-0.0918142	11	-0.0255039	0	0.0255039	0.000000000000000E+000	0.0255039	0.0000000E+000	0.000000000000000E+000	0.00101596
2	0	0	0	0	0	0	128.661	-0.830035	-0.830355	-1.22486	-0.0924247	-0.0924247	11	-0.0256735	0	0.0256735	0.000000000000000E+000	0.0256735	0.0000000E+000	0.000000000000000E+000	0.00101707
2	0	0	0	0	0	0	129.161	-0.830035	-0.830374	-1.22288	-0.0930353	-0.0930353	11	-0.0258431	0	0.0258431	0.000000000000000E+000	0.0258431	0.0000000E+000	0.000000000000000E+000	0.00101545
2	0	0	0	0	0	0	129.661	-0.830035	-0.830431	-1.23424	-0.0936506	-0.0936506	11	-0.0260141	0	0.0260141	0.000000000000000E+000	0.0260141	0.0000000E+000	0.000000000000000E+000	0.00102495
2	0	0	0	0	0	0	130.161	-0.830035	-0.830469	-1.25745	-0.0942746	-0.0942746	11	-0.0261874	0	0.0261874	0.000000000000000E+000	0.0261874	0.0000000E+000	0.000000000000000E+000	0.00104428
2	0	0	0	0	0	0	130.661	-0.830035	-0.830508	-1.27809	-0.0949086	-0.0949086	11	-0.0263635	0	0.0263635	0.000000000000000E+000	0.0263635	0.0000000E+000	0.000000000000000E+000	0.00106146
2	0	0	0	0	0	0	131.161	-0.830035	-0.83045	-1.28599	-0.0955499	-0.0955499	11	-0.0265416	0	0.0265416	0.000000000000000E+000	0.0265416	0.0000000E+000	0.000000000000000E+000	0.00106795
2	0	0	0	0	0	0	131.661	-0.830035	-0.830336	-1.29295	-0.0961953	-0.0961953	11	-0.0267209	0	0.0267209	0.000000000000000E+000	0.0267209	0.0000000E+000	0.000000000000000E+000	0.00107359
2	0	0	0	0	0	0	132.161	-0.830035	-0.830488	-1.29863	-0.0968432	-0.0968432	11	-0.0269009	0	0.0269009	0.000000000000000E+000	0.0269009	0.0000000E+000	0.000000000000000E+000	0.0010785
2	0	0	0	0	0	0	132.661	-0.830035	-0.830565	-1.29588	-0.0974918	-0.0974918	11	-0.027081	0	0.027081	0.000000000000000E+000	0.027081	0.0000000E+000	0.000000000000000E+000	0.00107631
2	0	0	0	0	0	0	133.161	-0.830035	-0.830508	-1.30052	-0.0981417	-0.0981417	11	-0.0272616	0	0.0272616	0.000000000000000E+000	0.0272616	0.0000000E+000	0.000000000000000E+000	0.00108009
2	0	0	0	0	0	0	133.661	-0.830035	-0.830546	-1.30469	-0.0987921	-0.0987921	11	-0.0274422	0	0.0274422	0.000000000000000E+000	0.0274422	0.0000000E+000	0.000000000000000E+000	0.00108361
2	0	0	0	0	0	0	134.161	-0.830035	-0.830488	-1.30043	-0.0994423	-0.0994423	11	-0.0276229	0	0.0276229	0.000000000000000E+000	0.0276229	0.0000000E+000	0.000000000000000E+000	0.00108
2	0	0	0	0	0	0	134.661	-0.830035	-0.830488	-1.29949	-0.100093	-0.100093	11	-0.0278035	0	0.0278035	0.000000000000000E+000	0.0278035	0.0000000E+000	0.000000000000000E+000	0.00107921
2	0	0	0	0	0	0	135.161	-0.830035	-0.830469	-1.29841	-0.100743	-0.100743	11	-0.027984	0	0.027984	0.000000000000000E+000	0.027984	0.0000000E+000	0.000000000000000E+000	0.00107829
2	0	0	0	0	0	0	135.661	-0.830035	-0.830393	-1.29749	-0.101392	-0.101392	11	-0.0281644	0	0.0281644	0.000000000000000E+000	0.0281644	0.0000000E+000	0.000000000000000E+000	0.00107743
2	0	0	0	0	0	0	136.161	-0.830035	-0.830469	-1.29542	-0.102041	-0.102041	11	-0.0283449	0	0.0283449	0.000000000000000E+000	0.0283449	0.0000000E+000	0.000000000000000E+000	0.00107581
2	0	0	0	0	0	0	136.661	-0.830035	-0.830469	-1.30378	-0.102692	-0.102692	11	-0.0285256	0	0.0285256	0.000000000000000E+000	0.0285256	0.0000000E+000	0.000000000000000E+000	0.00108275
2	0	0	0	0	0	0	137.161	-0.830035	-0.830603	-1.30333	-0.103342	-0.103342	11	-0.0287062	0	0.0287062	0.000000000000000E+000	0.0287062	0.0000000E+000	0.000000000000000E+000	0.00108255
2	0	0	0	0	0	0	137.661	-0.830035	-0.830527	-1.29967	-0.103993	-0.103993	11	-0.0288868	0	0.0288868	0.000000000000000E+000	0.0288868	0.0000000E+000	0.000000000000000E+000	0.00107941
2	0	0	0	0	0	0	138.161	-0.830035	-0.830603	-1.2996	-0.104643	-0.104643	11	-0.0290675	0	0.0290675	0.000000000000000E+000	0.0290675	0.0000000E+000	0.000000000000000E+000	0.00107945
2	0	0	0	0	0	0	138.661	-0.830035	-0.830488	-1.30208	-0.105294	-0.105294	11	-0.0292482	0	0.0292482	0.000000000000000E+000	0.0292482	0.0000000E+000	0.000000000000000E+000	0.00108136
2	0	0	0	0	0	0	139.161	-0.830035	-0.830431	-1.29672	-0.105944	-0.105944	11	-0.0294288	0	0.0294288	0.000000000000000E+000	0.0294288	0.0000000E+000	0.000000000000000E+000	0.00107683
2	0	0	0	0	0	0	139.661	-0.830035	-0.830469	-1.30141	-0.106594	-0.106594	11	-0.0296095	0	0.0296095	0.000000000000000E+000	0.0296095	0.0000000E+000	0.000000000000000E+000	0.00108078
2	0	0	0	0	0	0	140.161	-0.830035	-0.830603	-1.30549	-0.107245	-0.107245	11	-0.0297902	0	0.0297902	0.000000000000000E+000	0.0297902	0.0000000E+000	0.000000000000000E+000	0.00108434
2	0	0	0	0	0	0	140.661	-0.830035	-0.83045	-1.30016	-0.107895	-0.107895	11	-0.0299708	0	0.0299708	0.000000000000000E+000	0.0299708	0.0000000E+000	0.000000000000000E+000	0.00107972
2	0	0	0	0	0	0	141.161	-0.830035	-0.830584	-1.30104	-0.108545	-0.108545	11	-0.0301515	0	0.0301515	0.000000000000000E+000	0.0301515	0.0000000E+000	0.000000000000000E+000	0.00108063
2	0	0	0	0	0	0	141.661	-0.830035	-0.830431	-1.30043	-0.109196	-0.109196	11	-0.0303322	0	0.0303322	0.000000000000000E+000	0.0303322	0.0000000E+000	0.000000000000000E+000	0.00107992
2	0	0	0	0	0	0	142.161	-0.830035	-0.830469	-1.34184	-0.109856	-0.109856	11	-0.0305156	0	0.0305156	0.000000000000000E+000	0.0305156	0.0000000E+000	0.000000000000000E+000	0.00111436
2	0	0	0	0	0	0	142.661	-0.830035	-0.830469	-1.3783	-0.11054	-0.11054	11	-0.0307054	0	0.0307054	0.000000000000000E+000	0.0307054	0.0000000E+000	0.000000000000000E+000	0.00114463
2	0	0	0	0	0	0	143.161	-0.830035	-0.830336	-1.39009	-0.111231	-0.111231	11	-0.0308976	0	0.0308976	0.000000000000000E+000	0.0308976	0.0000000E+000	0.000000000000000E+000	0.00115424
2	0	0	0	0	0	0	143.661	-0.830035	-0.830488	-1.38991	-0.111926	-0.111926	11	-0.0310905	0	0.0310905	0.000000000000000E+000	0.0310905	0.0000000E+000	0.000000000000000E+000	0.0011543
2	0	0	0	0	0	0	144.161	-0.830035	-0.830412	-1.3895	-0.112621	-0.112621	11	-0.0312835	0	0.0312835	0.000000000000000E+000	0.0312835	0.0000000E+000	0.000000000000000E+000	0.00115385
2	0	0	0	0	0	0	144.661	-0.830035	-0.830488	-1.39081	-0.113317	-0.113317	11	-0.0314769	0	0.0314769	0.000000000000000E+000	0.0314769	0.0000000E+000	0.000000000000000E+000	0.00115505
2	0	0	0	0	0	0	145.161	-0.830035	-0.830431	-1.38824	-0.114012	-0.114012	11	-0.0316701	0	0.0316701	0.000000000000000E+000	0.0316701	0.0000000E+000	0.000000000000000E+000	0.00115284
2	0	0	0	0	0	0	145.661	-0.830035	-0.830374	-1.39179	-0.114708	-0.114708	11	-0.0318633	0	0.0318633	0.000000000000000E+000	0.0318633	0.0000000E+000	0.000000000000000E+000	0.00115571
2	0	0	0	0	0	0	146.161	-0.830035	-0.830355	-1.39454	-0.115403	-0.115403	11	-0.0320564	0	0.0320564	0.000000000000000E+000	0.0320564	0.0000000E+000	0.000000000000000E+000	0.00115796
2	0	0	0	0	0	0	146.661	-0.830035	-0.830431	-1.39039	-0.116098	-0.116098	11	-0.0322495	0	0.0322495	0.000000000000000E+000	0.0322495	0.0000000E+000	0.000000000000000E+000	0.00115462
2	0	0	0	0	0	0	147.161	-0.830035	-0.830412	-1.3883	-0.116793	-0.116793	11	-0.0324425	0	0.0324425	0.000000000000000E+000	0.0324425	0.0000000E+000	0.000000000000000E+000	0.00115286
2	0	0	0	0	0	0	147.661	-0.830035	-0.830508	-1.39034	-0.117489	-0.117489	11	-0.0326358	0	0.0326358	0.000000000000000E+000	0.0326358	0.0000000E+000	0.000000000000000E+000	0.00115469
2	0	0	0	0	0	0	148.161	-0.830035	-0.830584	-1.3879	-0.118184	-0.118184	11	-0.0328289	0	0.0328289	0.000000000000000E+000	0.0328289	0.0000000E+000	0.000000000000000E+000	0.00115277
2	0	0	0	0	0	0	148.661	-0.830035	-0.830488	-1.39232	-0.118879	-0.118879	11	-0.033022	0	0.033022	0.000000000000000E+000	0.033022	0.0000000E+000	0.000000000000000E+000	0.0011563
2	0	0	0	0	0	0	149.161	-0.830035	-0.830527	-1.39488	-0.119574	-0.119574	11	-0.0332151	0	0.0332151	0.000000000000000E+000	0.0332151	0.0000000E+000	0.000000000000000E+000	0.00115848
2	0	0	0	0	0	0	149.661	-0.830035	-0.830374	-1.38994	-0.120269	-0.120269	11	-0.0334082	0	0.0334082	0.000000000000000E+000	0.0334082	0.0000000E+000	0.000000000000000E+000	0.00115417
2	0	0	0	0	0	0	150.161	-0.830035	-0.830469	-1.38633	-0.120964	-0.120964	11	-0.0336012	0	0.0336012	0.000000000000000E+000	0.0336012	0.0000000E+000	0.000000000000000E+000	0.0011513
2	0	0	0	0	0	0	150.661	-0.830035	-0.830412	-1.38985	-0.12166	-0.12166	11	-0.0337943	0	0.0337943	0.000000000000000E+000	0.0337943	0.0000000E+000	0.000000000000000E+000	0.00115415
2	0	0	0	0	0	0	151.161	-0.830035	-0.830546	-1.38789	-0.122354	-0.122354	11	-0.0339873	0	0.0339873	0.000000000000000E+000	0.0339873	0.0000000E+000	0.000000000000000E+000	0.0011527
2	0	0	0	0	0	0	151.661	-0.830035	-0.830393	-1.39244	-0.12305	-0.12305	11	-0.0341805	0	0.0341805	0.000000000000000E+000	0.0341805	0.0000000E+000	0.000000000000000E+000	0.00115627
2	0	0	0	0	0	0	152.161	-0.830035	-0.830488	-1.39628	-0.123745	-0.123745	11	-0.0343737	0	0.0343737	0.000000000000000E+000	0.0343737	0.0000000E+000	0.000000000000000E+000	0.00115959
2	0	0	0	0	0	0	152.661	-0.830035	-0.830355	-1.38979	-0.12444	-0.12444	11	-0.0345667	0	0.0345667	0.000000000000000E+000	0.0345667	0.0000000E+000	0.000000000000000E+000	0.00115402
2	0	0	0	0	0	0	153.161	-0.830035	-0.83045	-1.38719	-0.125135	-0.125135	11	-0.0347598	0	0.0347598	0.000000000000000E+000	0.0347598	0.0000000E+000	0.000000000000000E+000	0.00115199
2	0	0	0	0	0	0	153.661	-0.830035	-0.830431	-1.38908	-0.125831	-0.125831	11	-0.034953	0	0.034953	0.000000000000000E+000	0.034953	0.0000000E+000	0.000000000000000E+000	0.00115354
2	0	0	0	0	0	0	154.161	-0.830035	-0.830527	-1.41772	-0.126531	-0.126531	11	-0.0351474	0	0.0351474	0.000000000000000E+000	0.0351474	0.0000000E+000	0.000000000000000E+000	0.00117745
2	0	0	0	0	0	0	154.661	-0.830035	-0.830603	-1.44052	-0.127248	-0.127248	11	-0.0353466	0	0.0353466	0.000000000000000E+000	0.0353466	0.0000000E+000	0.000000000000000E+000	0.0011965
2	0	0	0	0	0	0	155.161	-0.830035	-0.830469	-1.45187	-0.127973	-0.127973	11	-0.0355481	0	0.0355481	0.000000000000000E+000	0.0355481	0.0000000E+000	0.000000000000000E+000	0.00120574
2	0	0	0	0	0	0	155.661	-0.830035	-0.830317	-1.45845	-0.128701	-0.128701	11	-0.0357502	0	0.0357502	0.000000000000000E+000	0.0357502	0.0000000E+000	0.000000000000000E+000	0.00121097
2	0	0	0	0	0	0	156.161	-0.830035	-0.830527	-1.45776	-0.129429	-0.129429	11	-0.0359525	0	0.0359525	0.000000000000000E+000	0.0359525	0.0000000E+000	0.000000000000000E+000	0.00121071
2	0	0	0	0	0	0	156.661	-0.830035	-0.830527	-1.45194	-0.130156	-0.130156	11	-0.0361545	0	0.0361545	0.000000000000000E+000	0.0361545	0.0000000E+000	0.000000000000000E+000	0.00120587
2	0	0	0	0	0	0	157.161	-0.830035	-0.830565	-1.45295	-0.130884	-0.130884	11	-0.0363566	0	0.0363566	0.000000000000000E+000	0.0363566	0.0000000E+000	0.000000000000000E+000	0.00120677
2	0	0	0	0	0	0	157.661	-0.830035	-0.830508	-1.45782	-0.131611	-0.131611	11	-0.0365587	0	0.0365587	0.000000000000000E+000	0.0365587	0.0000000E+000	0.000000000000000E+000	0.00121073
2	0	0	0	0	0	0	158.161	-0.830035	-0.830469	-1.457	-0.132339	-0.132339	11	-0.0367608	0	0.0367608	0.000000000000000E+000	0.0367608	0.0000000E+000	0.000000000000000E+000	0.00121
2	0	0	0	0	0	0	158.661	-0.830035	-0.83045	-1.45169	-0.133066	-0.133066	11	-0.0369627	0	0.0369627	0.000000000000000E+000	0.0369627	0.0000000E+000	0.000000000000000E+000	0.00120555
2	0	0	0	0	0	0	159.161	-0.830035	-0.830508	-1.45184	-0.133793	-0.133793	11	-0.0371647	0	0.0371647	0.000000000000000E+000	0.0371647	0.0000000E+000	0.000000000000000E+000	0.00120577
2	0	0	0	0	0	0	159.661	-0.830035	-0.830546	-1.45008	-0.134518	-0.134518	11	-0.0373661	0	0.0373661	0.000000000000000E+000	0.0373661	0.0000000E+000	0.000000000000000E+000	0.00120436
2	0	0	0	0	0	0	160.161	-0.830035	-0.830603	-1.44955	-0.135241	-0.135241	11	-0.037567	0	0.037567	0.000000000000000E+000	0.037567	0.0000000E+000	0.000000000000000E+000	0.001204
2	0	0	0	0	0	0	160.661	-0.830035	-0.830527	-1.44762	-0.135965	-0.135965	11	-0.0377681	0	0.0377681	0.000000000000000E+000	0.0377681	0.0000000E+000	0.000000000000000E+000	0.00120229
2	0	0	0	0	0	0	161.161	-0.830035	-0.830527	-1.45196	-0.136692	-0.136692	11	-0.0379699	0	0.0379699	0.000000000000000E+000	0.0379699	0.0000000E+000	0.000000000000000E+000	0.00120589
2	0	0	0	0	0	0	161.661	-0.830035	-0.830488	-1.45641	-0.137418	-0.137418	11	-0.0381717	0	0.0381717	0.000000000000000E+000	0.0381717	0.0000000E+000	0.000000000000000E+000	0.00120953
2	0	0	0	0	0	0	162.161	-0.830035	-0.830584	-1.45509	-0.138145	-0.138145	11	-0.0383735	0	0.0383735	0.000000000000000E+000	0.0383735	0.0000000E+000	0.000000000000000E+000	0.00120858
2	0	0	0	0	0	0	162.661	-0.830035	-0.830508	-1.44907	-0.13887	-0.13887	11	-0.0385751	0	0.0385751	0.000000000000000E+000	0.0385751	0.0000000E+000	0.000000000000000E+000	0.00120347
2	0	0	0	0	0	0	163.161	-0.830035	-0.830412	-1.45133	-0.139597	-0.139597	11	-0.0387769	0	0.0387769	0.000000000000000E+000	0.0387769	0.0000000E+000	0.000000000000000E+000	0.00120521
2	0	0	0	0	0	0	163.661	-0.830035	-0.830355	-1.45537	-0.140323	-0.140323	11	-0.0389786	0	0.0389786	0.000000000000000E+000	0.0389786	0.0000000E+000	0.000000000000000E+000	0.00120847
2	0	0	0	0	0	0	164.161	-0.830035	-0.830393	-1.45564	-0.14105	-0.14105	11	-0.0391804	0	0.0391804	0.000000000000000E+000	0.0391804	0.0000000E+000	0.000000000000000E+000	0.00120875
2	0	0	0	0	0	0	164.661	-0.830035	-0.830546	-1.50817	-0.141791	-0.141791	11	-0.0393864	0	0.0393864	0.000000000000000E+000	0.0393864	0.0000000E+000	0.000000000000000E+000	0.0012526
2	0	0	0	0	0	0	165.161	-0.830035	-0.830412	-1.52772	-0.142553	-0.142553	11	-0.0395982	0	0.0395982	0.000000000000000E+000	0.0395982	0.0000000E+000	0.000000000000000E+000	0.00126864
2	0	0	0	0	0	0	165.661	-0.830035	-0.830431	-1.53345	-0.143319	-0.143319	11	-0.0398108	0	0.0398108	0.000000000000000E+000	0.0398108	0.0000000E+000	0.000000000000000E+000	0.00127343
2	0	0	0	0	0	0	166.161	-0.830035	-0.830412	-1.53378	-0.144086	-0.144086	11	-0.0400239	0	0.0400239	0.000000000000000E+000	0.0400239	0.0000000E+000	0.000000000000000E+000	0.00127367
2	0	0	0	0	0	0	166.661	-0.830035	-0.830298	-1.53259	-0.144852	-0.144852	11	-0.0402368	0	0.0402368	0.000000000000000E+000	0.0402368	0.0000000E+000	0.000000000000000E+000	0.00127251
2	0	0	0	0	0	0	167.161	-0.830035	-0.830298	-1.53206	-0.145618	-0.145618	11	-0.0404494	0	0.0404494	0.000000000000000E+000	0.0404494	0.0000000E+000	0.000000000000000E+000	0.00127206
2	0	0	0	0	0	0	167.661	-0.830035	-0.830527	-1.53229	-0.146384	-0.146384	11	-0.0406623	0	0.0406623	0.000000000000000E+000	0.0406623	0.0000000E+000	0.000000000000000E+000	0.00127261
2	0	0	0	0	0	0	168.161	-0.830035	-0.830527	-1.53018	-0.14715	-0.14715	11	-0.040875	0	0.040875	0.000000000000000E+000	0.040875	0.0000000E+000	0.000000000000000E+000	0.00127085
2	0	0	0	0	0	0	168.661	-0.830035	-0.830565	-1.53004	-0.147915	-0.147915	11	-0.0410875	0	0.0410875	0.000000000000000E+000	0.0410875	0.0000000E+000	0.000000000000000E+000	0.00127079
2	0	0	0	0	0	0	169.161	-0.830035	-0.830584	-1.52971	-0.14868	-0.14868	11	-0.0412999	0	0.0412999	0.000000000000000E+000	0.0412999	0.0000000E+000	0.000000000000000E+000	0.00127055
2	0	0	0	0	0	0	169.661	-0.830035	-0.830488	-1.53005	-0.149445	-0.149445	11	-0.0415125	0	0.0415125	0.000000000000000E+000	0.0415125	0.0000000E+000	0.000000000000000E+000	0.00127069
2	0	0	0	0	0	0	170.161	-0.830035	-0.830584	-1.52833	-0.150209	-0.150209	11	-0.0417248	0	0.0417248	0.000000000000000E+000	0.0417248	0.0000000E+000	0.000000000000000E+000	0.00126941
2	0	0	0	0	0	0	170.661	-0.830035	-0.830393	-1.52921	-0.150974	-0.150974	11	-0.0419373	0	0.0419373	0.000000000000000E+000	0.0419373	0.0000000E+000	0.000000000000000E+000	0.00126985
2	0	0	0	0	0	0	171.161	-0.830035	-0.830374	-1.5279	-0.151738	-0.151738	11	-0.0421496	0	0.0421496	0.000000000000000E+000	0.0421496	0.0000000E+000	0.000000000000000E+000	0.00126873
2	0	0	0	0	0	0	171.661	-0.830035	-0.830508	-1.52851	-0.152503	-0.152503	11	-0.0423619	0	0.0423619	0.000000000000000E+000	0.0423619	0.0000000E+000	0.000000000000000E+000	0.00126944
2	0	0	0	0	0	0	172.161	-0.830035	-0.830546	-1.52821	-0.153267	-0.153267	11	-0.0425742	0	0.0425742	0.000000000000000E+000	0.0425742	0.0000000E+000	0.000000000000000E+000	0.00126925
2	0	0	0	0	0	0	172.661	-0.830035	-0.830412	-1.52693	-0.154031	-0.154031	11	-0.0427864	0	0.0427864	0.000000000000000E+000	0.0427864	0.0000000E+000	0.000000000000000E+000	0.00126798
2	0	0	0	0	0	0	173.161	-0.830035	-0.830527	-1.52574	-0.154794	-0.154794	11	-0.0429984	0	0.0429984	0.000000000000000E+000	0.0429984	0.0000000E+000	0.000000000000000E+000	0.00126717
2	0	0	0	0	0	0	173.661	-0.830035	-0.830546	-1.52709	-0.155558	-0.155558	11	-0.0432105	0	0.0432105	0.000000000000000E+000	0.0432105	0.0000000E+000	0.000000000000000E+000	0.00126832
2	0	0	0	0	0	0	174.161	-0.830035	-0.830488	-1.5269	-0.156321	-0.156321	11	-0.0434226	0	0.0434226	0.000000000000000E+000	0.0434226	0.0000000E+000	0.000000000000000E+000	0.00126807
2	0	0	0	0	0	0	174.661	-0.830035	-0.830374	-1.53538	-0.157086	-0.157086	11	-0.043635	0	0.043635	0.000000000000000E+000	0.043635	0.0000000E+000	0.000000000000000E+000	0.00127494
2	0	0	0	0	0	0	175.161	-0.830035	-0.830355	-1.55878	-0.157861	-0.157861	11	-0.0438504	0	0.0438504	0.000000000000000E+000	0.0438504	0.0000000E+000	0.000000000000000E+000	0.00129434
2	0	0	0	0	0	0	175.661	-0.830035	-0.830508	-1.56141	-0.158643	-0.158643	11	-0.0440675	0	0.0440675	0.000000000000000E+000	0.0440675	0.0000000E+000	0.000000000000000E+000	0.00129676
2	0	0	0	0	0	0	176.161	-0.830035	-0.830412	-1.56228	-0.159424	-0.159424	11	-0.0442844	0	0.0442844	0.000000000000000E+000	0.0442844	0.0000000E+000	0.000000000000000E+000	0.00129733
2	0	0	0	0	0	0	176.661	-0.830035	-0.830412	-1.55746	-0.160204	-0.160204	11	-0.044501	0	0.044501	0.000000000000000E+000	0.044501	0.0000000E+000	0.000000000000000E+000	0.00129333
2	0	0	0	0	0	0	177.161	-0.830035	-0.830393	-1.55854	-0.160982	-0.160982	11	-0.0447173	0	0.0447173	0.000000000000000E+000	0.0447173	0.0000000E+000	0.000000000000000E+000	0.0012942
2	0	0	0	0	0	0	177.661	-0.830035	-0.830431	-1.55709	-0.161761	-0.161761	11	-0.0449336	0	0.0449336	0.000000000000000E+000	0.0449336	0.0000000E+000	0.000000000000000E+000	0.00129305
2	0	0	0	0	0	0	178.161	-0.830035	-0.83024	-1.55685	-0.16254	-0.16254	11	-0.0451499	0	0.0451499	0.000000000000000E+000	0.0451499	0.0000000E+000	0.000000000000000E+000	0.00129256
2	0	0	0	0	0	0	178.661	-0.830035	-0.830603	-1.55679	-0.163318	-0.163318	11	-0.0453662	0	0.0453662	0.000000000000000E+000	0.0453662	0.0000000E+000	0.000000000000000E+000	0.00129308
2	0	0	0	0	0	0	179.161	-0.830035	-0.830603	-1.55642	-0.164097	-0.164097	11	-0.0455824	0	0.0455824	0.000000000000000E+000	0.0455824	0.0000000E+000	0.000000000000000E+000	0.00129277
2	0	0	0	0	0	0	179.661	-0.830035	-0.83045	-1.55736	-0.164875	-0.164875	11	-0.0457986	0	0.0457986	0.000000000000000E+000	0.0457986	0.0000000E+000	0.000000000000000E+000	0.00129331
2	0	0	0	0	0	0	180.161	-0.830035	-0.830546	-1.55481	-0.165653	-0.165653	11	-0.0460147	0	0.0460147	0.000000000000000E+000	0.0460147	0.0000000E+000	0.000000000000000E+000	0.00129134
2	0	0	0	0	0	0	180.661	-0.830035	-0.830431	-1.55778	-0.166431	-0.166431	11	-0.0462309	0	0.0462309	0.000000000000000E+000	0.0462309	0.0000000E+000	0.000000000000000E+000	0.00129363
2	0	0	0	0	0	0	181.161	-0.830035	-0.830508	-1.55522	-0.167209	-0.167209	11	-0.0464469	0	0.0464469	0.000000000000000E+000	0.0464469	0.0000000E+000	0.000000000000000E+000	0.00129163
2	0	0	0	0	0	0	181.661	-0.830035	-0.830412	-1.55713	-0.167987	-0.167987	11	-0.0466631	0	0.0466631	0.000000000000000E+000	0.0466631	0.0000000E+000	0.000000000000000E+000	0.00129306
2	0	0	0	0	0	0	182.161	-0.830035	-0.830431	-1.55177	-0.168764	-0.168764	11	-0.0468789	0	0.0468789	0.000000000000000E+000	0.0468789	0.0000000E+000	0.000000000000000E+000	0.00128864
2	0	0	0	0	0	0	182.661	-0.830035	-0.83045	-1.5569	-0.169542	-0.169542	11	-0.0470949	0	0.0470949	0.000000000000000E+000	0.0470949	0.0000000E+000	0.000000000000000E+000	0.00129293
2	0	0	0	0	0	0	183.161	-0.830035	-0.830412	-1.55224	-0.170318	-0.170318	11	-0.0473107	0	0.0473107	0.000000000000000E+000	0.0473107	0.0000000E+000	0.000000000000000E+000	0.001289
2	0	0	0	0	0	0	183.661	-0.830035	-0.830336	-1.55431	-0.171095	-0.171095	11	-0.0475264	0	0.0475264	0.000000000000000E+000	0.0475264	0.0000000E+000	0.000000000000000E+000	0.0012906
2	0	0	0	0	0	0	184.161	-0.830035	-0.830584	-1.60582	-0.171881	-0.171881	11	-0.0477448	0	0.0477448	0.000000000000000E+000	0.0477448	0.0000000E+000	0.000000000000000E+000	0.00133377
2	0	0	0	0	0	0	184.661	-0.830035	-0.83045	-1.60508	-0.172685	-0.172685	11	-0.047968	0	0.047968	0.000000000000000E+000	0.047968	0.0000000E+000	0.000000000000000E+000	0.00133294
2	0	0	0	0	0	0	185.161	-0.830035	-0.830603	-1.5977	-0.173485	-0.173485	11	-0.0481903	0	0.0481903	0.000000000000000E+000	0.0481903	0.0000000E+000	0.000000000000000E+000	0.00132705
2	0	0	0	0	0	0	185.661	-0.830035	-0.830546	-1.5987	-0.174284	-0.174284	11	-0.0484121	0	0.0484121	0.000000000000000E+000	0.0484121	0.0000000E+000	0.000000000000000E+000	0.00132779
2	0	0	0	0	0	0	186.161	-0.830035	-0.830641	-1.59472	-0.175082	-0.175082	11	-0.0486339	0	0.0486339	0.000000000000000E+000	0.0486339	0.0000000E+000	0.000000000000000E+000	0.00132464
2	0	0	0	0	0	0	186.661	-0.830035	-0.830584	-1.59568	-0.17588	-0.17588	11	-0.0488556	0	0.0488556	0.000000000000000E+000	0.0488556	0.0000000E+000	0.000000000000000E+000	0.00132535
2	0	0	0	0	0	0	187.161	-0.830035	-0.830527	-1.59679	-0.176678	-0.176678	11	-0.0490772	0	0.0490772	0.000000000000000E+000	0.0490772	0.0000000E+000	0.000000000000000E+000	0.00132618
2	0	0	0	0	0	0	187.661	-0.830035	-0.830374	-1.59321	-0.177475	-0.177475	11	-0.0492987	0	0.0492987	0.000000000000000E+000	0.0492987	0.0000000E+000	0.000000000000000E+000	0.00132296
2	0	0	0	0	0	0	188.161	-0.830035	-0.830469	-1.59493	-0.178272	-0.178272	11	-0.0495201	0	0.0495201	0.000000000000000E+000	0.0495201	0.0000000E+000	0.000000000000000E+000	0.00132454
2	0	0	0	0	0	0	188.661	-0.830035	-0.830431	-1.59352	-0.179069	-0.179069	11	-0.0497414	0	0.0497414	0.000000000000000E+000	0.0497414	0.0000000E+000	0.000000000000000E+000	0.00132331
2	0	0	0	0	0	0	189.161	-0.830035	-0.830622	-1.59086	-0.179865	-0.179865	11	-0.0499626	0	0.0499626	0.000000000000000E+000	0.0499626	0.0000000E+000	0.000000000000000E+000	0.0013214
2	0	0	0	0	0	0	189.661	-0.830035	-0.83045	-1.59142	-0.180661	-0.180661	11	-0.0501836	0	0.0501836	0.000000000000000E+000	0.0501836	0.0000000E+000	0.000000000000000E+000	0.0013216
2	0	0	0	0	0	0	190.161	-0.830035	-0.830565	-1.59129	-0.181457	-0.181457	11	-0.0504046	0	0.0504046	0.000000000000000E+000	0.0504046	0.0000000E+000	0.000000000000000E+000	0.00132167
2	0	0	0	0	0	0	190.661	-0.830035	-0.830393	-1.59138	-0.182252	-0.182252	11	-0.0506257	0	0.0506257	0.000000000000000E+000	0.0506257	0.0000000E+000	0.000000000000000E+000	0.00132147
2	0	0	0	0	0	0	191.161	-0.830035	-0.830565	-1.5897	-0.183048	-0.183048	11	-0.0508466	0	0.0508466	0.000000000000000E+000	0.0508466	0.0000000E+000	0.000000000000000E+000	0.00132035
2	0	0	0	0	0	0	191.661	-0.830035	-0.830488	-1.5899	-0.183843	-0.183843	11	-0.0510674	0	0.0510674	0.000000000000000E+000	0.0510674	0.0000000E+000	0.000000000000000E+000	0.00132039
2	0	0	0	0	0	0	192.161	-0.830035	-0.830508	-1.59009	-0.184637	-0.184637	11	-0.0512882	0	0.0512882	0.000000000000000E+000	0.0512882	0.0000000E+000	0.000000000000000E+000	0.00132058
2	0	0	0	0	0	0	192.661	-0.830035	-0.830622	-1.5897	-0.185432	-0.185432	11	-0.051509	0	0.051509	0.000000000000000E+000	0.051509	0.0000000E+000	0.000000000000000E+000	0.00132044
2	0	0	0	0	0	0	193.161	-0.830035	-0.830412	-1.58739	-0.186227	-0.186227	11	-0.0517297	0	0.0517297	0.000000000000000E+000	0.0517297	0.0000000E+000	0.000000000000000E+000	0.00131819
2	0	0	0	0	0	0	193.661	-0.830035	-0.830393	-1.58876	-0.187021	-0.187021	11	-0.0519503	0	0.0519503	0.000000000000000E+000	0.0519503	0.0000000E+000	0.000000000000000E+000	0.00131929
2	0	0	0	0	0	0	194.161	-0.830035	-0.830584	-1.58665	-0.187815	-0.187815	11	-0.0521708	0	0.0521708	0.000000000000000E+000	0.0521708	0.0000000E+000	0.000000000000000E+000	0.00131784
2	0	0	0	0	0	0	194.661	-0.830035	-0.830718	-1.586	-0.188608	-0.188608	11	-0.0523911	0	0.0523911	0.000000000000000E+000	0.0523911	0.0000000E+000	0.000000000000000E+000	0.00131752
2	0	0	0	0	0	0	195.161	-0.830035	-0.830546	-1.58607	-0.189401	-0.189401	11	-0.0526114	0	0.0526114	0.000000000000000E+000	0.0526114	0.0000000E+000	0.000000000000000E+000	0.00131731
2	0	0	0	0	0	0	195.661	-0.830035	-0.830488	-1.58691	-0.190194	-0.190194	11	-0.0528317	0	0.0528317	0.000000000000000E+000	0.0528317	0.0000000E+000	0.000000000000000E+000	0.00131791
2	0	0	0	0	0	0	196.161	-0.830035	-0.830469	-1.58442	-0.190987	-0.190987	11	-0.0530518	0	0.0530518	0.000000000000000E+000	0.0530518	0.0000000E+000	0.000000000000000E+000	0.00131582
2	0	0	0	0	0	0	196.661	-0.830035	-0.830431	-1.58518	-0.191779	-0.191779	11	-0.053272	0	0.053272	0.000000000000000E+000	0.053272	0.0000000E+000	0.000000000000000E+000	0.00131638
2	0	0	0	0	0	0	197.161	-0.830035	-0.830641	-1.58471	-0.192571	-0.192571	11	-0.0534921	0	0.0534921	0.000000000000000E+000	0.0534921	0.0000000E+000	0.000000000000000E+000	0.00131632
2	0	0	0	0	0	0	197.661	-0.830035	-0.830527	-1.58301	-0.193364	-0.193364	11	-0.0537121	0	0.0537121	0.000000000000000E+000	0.0537121	0.0000000E+000	0.000000000000000E+000	0.00131473
2	0	0	0	0	0	0	198.161	-0.830035	-0.830584	-1.58554	-0.194156	-0.194156	11	-0.0539323	0	0.0539323	0.000000000000000E+000	0.0539323	0.0000000E+000	0.000000000000000E+000	0.00131692
2	0	0	0	0	0	0	198.661	-0.830035	-0.830393	-1.58421	-0.194948	-0.194948	11	-0.0541524	0	0.0541524	0.000000000000000E+000	0.0541524	0.0000000E+000	0.000000000000000E+000	0.00131552
2	0	0	0	0	0	0	199.161	-0.830035	-0.830469	-1.58343	-0.195741	-0.195741	11	-0.0543724	0	0.0543724	0.000000000000000E+000	0.0543724	0.0000000E+000	0.000000000000000E+000	0.00131499
2	0	0	0	0	0	0	199.661	-0.830035	-0.830508	-1.58272	-0.196532	-0.196532	11	-0.0545923	0	0.0545923	0.000000000000000E+000	0.0545923	0.0000000E+000	0.000000000000000E+000	0.00131446
2	0	0	0	0	0	0	199.921	-0.830035	-0.830565	-1.58357	-0.196944	-0.196944	11	-0.0547067	0	0.0547067	0.000000000000000E+000	0.0547067	0.0000000E+000	0.000000000000000E+000	0.00131526