File: ZnPVAECH_08 03-10-22-GC ECH K-L 100 to 1600 rpm at -0_8V vs RHE RDE1(1).mpt
EC-Lab ASCII FILE
Nb header lines : 81

Chronoamperometry / Chronocoulometry

Run on channel : 5 (SN 6729)
User :
CE vs. WE compliance from -10 V to 10 V
Electrode connection : standard
Ewe ctrl range : min = -2.50 V, max = 2.50 V
Safety Limits :
	Do not start on E overload
Acquisition started on : 03/10/2022 15:18:22.916
Technique started on : 03/10/2022 15:18:23.016
Loaded Setting File :  NONE
Saved on :
	File : 03-10-22-GC ECH K-L 100 to 1600 rpm at -0_8V vs RHE RDE3 final but RDE2_C05.mpr
	Directory : G:\Mindy\Koutecky Levich\Zn PVA\ECH\03-10-22\
	Host : 35.9.136.176
Device : VSP (SN 0012)
Address : 35.9.137.65
EC-Lab for windows v11.36 (software)
Internet server v11.36 (firmware)
Command interpretor v11.36 (firmware)
Electrode material : Au/Pd
Initial state :
Electrolyte : NaCl (0.2M)
Comments : Fe(CN)63-/Fe(CN)64- 5.10-3 M
Reference electrode : SCE Saturated Calomel Electrode (0.241 V)
Electrode surface area : 0.196 cm²
Characteristic mass : 0.001 g
Equivalent Weight : 0.000 g/eq.
Density : 0.000 g/cm3
Record Analogic IN 1
Cycle Definition : Charge/Discharge alternance
External device configuration :
   device type : RDE
   device name : BluRev RDE
   Analog OUT :
      mode : E/V
      unit : speed/rpm
      max : 10000.000 at 10.000 V
      min : 0.000 at 0.000 V
      current : 1600.000
   Analog IN 1 :
      unit : speed/rpm
      max : 10000.000 at 10.000 V
      min : 0.000 at 0.000 V
Ei (V)              -0.800
vs.                 Ref
ti (h:m:s)          0:30:0.0000
Imax                pass
unit Imax           mA
Imin                pass
unit Imin           mA
dQM                 0.000
unit dQM            mA.h
record              <I>
dI                  5.000
unit dI             µA
dQ                  0.000
unit dQ             mA.h
dt (s)              0.1000
dta (s)             0.1000
E range min (V)     -2.500
E range max (V)     2.500
I Range             Auto
I Range min         Unset
I Range max         Unset
I Range init        Unset
Bandwidth           5
goto Ns'            0
nc cycles           0

Modify on : 03/10/2022 15:18
Ei (V)              -0.780

Modify on : 03/10/2022 15:18
Ei (V)              -0.770

mode	ox/red	error	control changes	Ns changes	counter inc.	Ns	time/s	control/V	Ewe/V	<I>/mA	dQ/C	(Q-Qo)/C	I Range	Q charge/discharge/mA.h	half cycle	Analog IN 1/V	Analog OUT/V	Q discharge/mA.h	Q charge/mA.h	Capacity/mA.h	Efficiency/%	cycle number	P/W
2	0	0	0	0	0	0	0.1	-0.800015	-0.800382	-5.10173	-0.000125095	-0.000125095	11	-3.47486e-05	0	-0.235721	1600	3.47486e-05	0.000000000000000E+000	3.47486e-05	0.0000000E+000	0.000000000000000E+000	0.00408333
2	0	0	0	0	0	0	0.9	-0.800015	-0.800535	-4.71144	-0.00394451	-0.00394451	11	-0.0010957	0	-0.197537	1600	0.0010957	0.000000000000000E+000	0.0010957	0.0000000E+000	0.000000000000000E+000	0.00377167
2	0	0	0	0	0	0	1.7	-0.800015	-0.800382	-4.67315	-0.00769679	-0.00769679	11	-0.002138	0	-0.178445	1600	0.002138	0.000000000000000E+000	0.002138	0.0000000E+000	0.000000000000000E+000	0.00374031
2	0	0	0	0	0	0	2.5	-0.800015	-0.800459	-4.64284	-0.0114202	-0.0114202	11	-0.00317228	0	-0.273906	1600	0.00317228	0.000000000000000E+000	0.00317228	0.0000000E+000	0.000000000000000E+000	0.0037164
2	0	0	0	0	0	0	3.3	-0.800015	-0.800325	-4.61701	-0.0151232	-0.0151232	11	-0.0042009	0	-0.102076	1600	0.0042009	0.000000000000000E+000	0.0042009	0.0000000E+000	0.000000000000000E+000	0.00369511
2	0	0	0	0	0	0	4.1	-0.800015	-0.800363	-4.60034	-0.0188079	-0.0188079	11	-0.00522441	0	-0.197537	1600	0.00522441	0.000000000000000E+000	0.00522441	0.0000000E+000	0.000000000000000E+000	0.00368195
2	0	0	0	0	0	0	4.9	-0.800015	-0.80042	-4.57652	-0.0224771	-0.0224771	11	-0.00624364	0	-0.14026	1600	0.00624364	0.000000000000000E+000	0.00624364	0.0000000E+000	0.000000000000000E+000	0.00366314
2	0	0	0	0	0	0	5.7	-0.800015	-0.80044	-4.56372	-0.0261325	-0.0261325	11	-0.00725904	0	-0.235721	1600	0.00725904	0.000000000000000E+000	0.00725904	0.0000000E+000	0.000000000000000E+000	0.00365298
2	0	0	0	0	0	0	6.5	-0.800015	-0.800306	-4.54576	-0.0297752	-0.0297752	11	-0.00827089	0	-0.331182	1600	0.00827089	0.000000000000000E+000	0.00827089	0.0000000E+000	0.000000000000000E+000	0.003638
2	0	0	0	0	0	0	7.3	-0.800015	-0.800172	-4.52624	-0.0334038	-0.0334038	11	-0.00927883	0	-0.235721	1600	0.00927883	0.000000000000000E+000	0.00927883	0.0000000E+000	0.000000000000000E+000	0.00362177
2	0	0	0	0	0	0	8.1	-0.800015	-0.800325	-4.51143	-0.0370189	-0.0370189	11	-0.010283	0	-0.235721	1600	0.010283	0.000000000000000E+000	0.010283	0.0000000E+000	0.000000000000000E+000	0.00361061
2	0	0	0	0	0	0	8.9	-0.800015	-0.80044	-4.50009	-0.0406224	-0.0406224	11	-0.011284	0	-0.159353	1600	0.011284	0.000000000000000E+000	0.011284	0.0000000E+000	0.000000000000000E+000	0.00360205
2	0	0	0	0	0	0	9.7	-0.800015	-0.800344	-4.48525	-0.0442149	-0.0442149	11	-0.0122819	0	-0.235721	1600	0.0122819	0.000000000000000E+000	0.0122819	0.0000000E+000	0.000000000000000E+000	0.00358974
2	0	0	0	0	0	0	10.5	-0.800015	-0.800344	-4.46926	-0.0477961	-0.0477961	11	-0.0132767	0	-0.292998	1600	0.0132767	0.000000000000000E+000	0.0132767	0.0000000E+000	0.000000000000000E+000	0.00357694
2	0	0	0	0	0	0	11.3	-0.800015	-0.800478	-4.462	-0.051367	-0.051367	11	-0.0142686	0	-0.178445	1600	0.0142686	0.000000000000000E+000	0.0142686	0.0000000E+000	0.000000000000000E+000	0.00357173
2	0	0	0	0	0	0	12.1	-0.800015	-0.800325	-4.44596	-0.054929	-0.054929	11	-0.0152581	0	-0.292998	1600	0.0152581	0.000000000000000E+000	0.0152581	0.0000000E+000	0.000000000000000E+000	0.00355822
2	0	0	0	0	0	0	12.9	-0.800015	-0.800287	-4.43976	-0.058484	-0.058484	11	-0.0162456	0	-0.197537	1600	0.0162456	0.000000000000000E+000	0.0162456	0.0000000E+000	0.000000000000000E+000	0.00355308
2	0	0	0	0	0	0	13.7	-0.800015	-0.800363	-4.42457	-0.0620268	-0.0620268	11	-0.0172297	0	-0.254813	1600	0.0172297	0.000000000000000E+000	0.0172297	0.0000000E+000	0.000000000000000E+000	0.00354126
2	0	0	0	0	0	0	14.5	-0.800015	-0.800382	-4.40937	-0.0655605	-0.0655605	11	-0.0182112	0	-0.178445	1600	0.0182112	0.000000000000000E+000	0.0182112	0.0000000E+000	0.000000000000000E+000	0.00352918
2	0	0	0	0	0	0	15.3	-0.800015	-0.80042	-4.40474	-0.0690867	-0.0690867	11	-0.0191908	0	-0.273906	1600	0.0191908	0.000000000000000E+000	0.0191908	0.0000000E+000	0.000000000000000E+000	0.00352565
2	0	0	0	0	0	0	16.1	-0.800015	-0.800459	-4.39035	-0.072605	-0.072605	11	-0.0201681	0	-0.159353	1600	0.0201681	0.000000000000000E+000	0.0201681	0.0000000E+000	0.000000000000000E+000	0.0035143
2	0	0	1	0	0	0	16.9	-0.780006	-0.780432	-3.76479	-0.075975	-0.075975	11	-0.0211042	0	-0.14026	1600	0.0211042	0.000000000000000E+000	0.0211042	0.0000000E+000	0.000000000000000E+000	0.00293817
2	0	0	1	0	0	0	17.7	-0.780006	-0.780451	-3.76453	-0.0789902	-0.0789902	11	-0.0219417	0	-0.216629	1600	0.0219417	0.000000000000000E+000	0.0219417	0.0000000E+000	0.000000000000000E+000	0.00293803
2	0	0	1	0	0	0	18.5	-0.780006	-0.780298	-3.75832	-0.0819991	-0.0819991	11	-0.0227775	0	-0.273906	1600	0.0227775	0.000000000000000E+000	0.0227775	0.0000000E+000	0.000000000000000E+000	0.00293261
2	0	0	1	0	0	0	19.3	-0.780006	-0.780432	-3.74961	-0.0850032	-0.0850032	11	-0.023612	0	-0.178445	1600	0.023612	0.000000000000000E+000	0.023612	0.0000000E+000	0.000000000000000E+000	0.00292631
2	0	0	1	0	0	0	20.1	-0.780006	-0.780298	-3.74484	-0.0880001	-0.0880001	11	-0.0244445	0	-0.235721	1600	0.0244445	0.000000000000000E+000	0.0244445	0.0000000E+000	0.000000000000000E+000	0.00292209
2	0	0	1	0	0	0	20.9	-0.780006	-0.780394	-3.7346	-0.090991	-0.090991	11	-0.0252753	0	-0.121168	1600	0.0252753	0.000000000000000E+000	0.0252753	0.0000000E+000	0.000000000000000E+000	0.00291446
2	0	0	1	0	0	0	21.7	-0.780006	-0.780298	-3.72957	-0.0939774	-0.0939774	11	-0.0261048	0	-0.178445	1600	0.0261048	0.000000000000000E+000	0.0261048	0.0000000E+000	0.000000000000000E+000	0.00291018
2	0	0	1	0	0	0	22.5	-0.780006	-0.780527	-3.72834	-0.0969598	-0.0969598	11	-0.0269333	0	-0.178445	1600	0.0269333	0.000000000000000E+000	0.0269333	0.0000000E+000	0.000000000000000E+000	0.00291007
2	0	0	1	0	0	0	23.3	-0.780006	-0.780489	-3.71521	-0.0999354	-0.0999354	11	-0.0277598	0	-0.292998	1600	0.0277598	0.000000000000000E+000	0.0277598	0.0000000E+000	0.000000000000000E+000	0.00289968
2	0	0	1	0	0	0	24.1	-0.780006	-0.780527	-3.71267	-0.102907	-0.102907	11	-0.0285853	0	-0.216629	1600	0.0285853	0.000000000000000E+000	0.0285853	0.0000000E+000	0.000000000000000E+000	0.00289784
2	0	0	1	0	0	0	24.9	-0.780006	-0.780279	-3.70432	-0.105872	-0.105872	11	-0.029409	0	-0.159353	1600	0.029409	0.000000000000000E+000	0.029409	0.0000000E+000	0.000000000000000E+000	0.0028904
2	0	0	1	0	0	0	25.7	-0.780006	-0.780413	-3.69842	-0.108832	-0.108832	11	-0.0302311	0	-0.197537	1600	0.0302311	0.000000000000000E+000	0.0302311	0.0000000E+000	0.000000000000000E+000	0.0028863
2	0	0	1	0	0	0	26.5	-0.780006	-0.78026	-3.69036	-0.111787	-0.111787	11	-0.0310519	0	-0.197537	1600	0.0310519	0.000000000000000E+000	0.0310519	0.0000000E+000	0.000000000000000E+000	0.00287944
2	0	0	0	0	0	0	27.3	-0.770002	-0.770371	-3.38936	-0.114506	-0.114506	11	-0.0318073	0	-0.216629	1600	0.0318073	0.000000000000000E+000	0.0318073	0.0000000E+000	0.000000000000000E+000	0.00261106
2	0	0	0	0	0	0	28.1	-0.770002	-0.77039	-3.38208	-0.117214	-0.117214	11	-0.0325595	0	-0.159353	1600	0.0325595	0.000000000000000E+000	0.0325595	0.0000000E+000	0.000000000000000E+000	0.00260552
2	0	0	0	0	0	0	28.9	-0.770002	-0.770275	-3.37466	-0.119917	-0.119917	11	-0.0333104	0	-0.159353	1600	0.0333104	0.000000000000000E+000	0.0333104	0.0000000E+000	0.000000000000000E+000	0.00259942
2	0	0	0	0	0	0	29.7	-0.770002	-0.770352	-3.37234	-0.122616	-0.122616	11	-0.0340599	0	-0.254813	1600	0.0340599	0.000000000000000E+000	0.0340599	0.0000000E+000	0.000000000000000E+000	0.00259789
2	0	0	0	0	0	0	30.5	-0.770002	-0.770333	-3.36466	-0.12531	-0.12531	11	-0.0348083	0	-0.197537	1600	0.0348083	0.000000000000000E+000	0.0348083	0.0000000E+000	0.000000000000000E+000	0.00259191
2	0	0	0	0	0	0	31.3	-0.770002	-0.770524	-3.35709	-0.127999	-0.127999	11	-0.0355552	0	-0.273906	1600	0.0355552	0.000000000000000E+000	0.0355552	0.0000000E+000	0.000000000000000E+000	0.00258671
2	0	0	0	0	0	0	32.1	-0.770002	-0.770352	-3.35343	-0.130683	-0.130683	11	-0.0363009	0	-0.292998	1600	0.0363009	0.000000000000000E+000	0.0363009	0.0000000E+000	0.000000000000000E+000	0.00258332
2	0	0	0	0	0	0	32.9	-0.770002	-0.770333	-3.34582	-0.133363	-0.133363	11	-0.0370452	0	-0.14026	1600	0.0370452	0.000000000000000E+000	0.0370452	0.0000000E+000	0.000000000000000E+000	0.0025774
2	0	0	0	0	0	0	33.7	-0.770002	-0.770466	-3.34247	-0.136038	-0.136038	11	-0.0377883	0	-0.159353	1600	0.0377883	0.000000000000000E+000	0.0377883	0.0000000E+000	0.000000000000000E+000	0.00257526
2	0	0	0	0	0	0	34.5	-0.770002	-0.77018	-3.33817	-0.13871	-0.13871	11	-0.0385305	0	-0.273906	1600	0.0385305	0.000000000000000E+000	0.0385305	0.0000000E+000	0.000000000000000E+000	0.00257099
2	0	0	0	0	0	0	35.3	-0.770002	-0.770314	-3.33055	-0.141377	-0.141377	11	-0.0392714	0	-0.159353	1600	0.0392714	0.000000000000000E+000	0.0392714	0.0000000E+000	0.000000000000000E+000	0.00256557
2	0	0	0	0	0	0	36.1	-0.770002	-0.770371	-3.32602	-0.14404	-0.14404	11	-0.0400112	0	-0.197537	1600	0.0400112	0.000000000000000E+000	0.0400112	0.0000000E+000	0.000000000000000E+000	0.00256227
2	0	0	0	0	0	0	36.9	-0.770002	-0.770352	-3.32362	-0.1467	-0.1467	11	-0.04075	0	-0.273906	1600	0.04075	0.000000000000000E+000	0.04075	0.0000000E+000	0.000000000000000E+000	0.00256036
2	0	0	0	0	0	0	37.7	-0.770002	-0.770371	-3.31634	-0.149355	-0.149355	11	-0.0414876	0	-0.254813	1600	0.0414876	0.000000000000000E+000	0.0414876	0.0000000E+000	0.000000000000000E+000	0.00255482
2	0	0	0	0	0	0	38.5	-0.770002	-0.77039	-3.31273	-0.152007	-0.152007	11	-0.0422243	0	-0.216629	1600	0.0422243	0.000000000000000E+000	0.0422243	0.0000000E+000	0.000000000000000E+000	0.0025521
2	0	0	0	0	0	0	39.3	-0.770002	-0.770237	-3.30668	-0.154654	-0.154654	11	-0.0429596	0	-0.31209	1600	0.0429596	0.000000000000000E+000	0.0429596	0.0000000E+000	0.000000000000000E+000	0.00254693
2	0	0	0	0	0	0	40.1	-0.770002	-0.770352	-3.3032	-0.157299	-0.157299	11	-0.043694	0	-0.197537	1600	0.043694	0.000000000000000E+000	0.043694	0.0000000E+000	0.000000000000000E+000	0.00254463
2	0	0	0	0	0	0	40.9	-0.770002	-0.77039	-3.30005	-0.159939	-0.159939	11	-0.0444276	0	-0.273906	1600	0.0444276	0.000000000000000E+000	0.0444276	0.0000000E+000	0.000000000000000E+000	0.00254233
2	0	0	0	0	0	0	41.7	-0.770002	-0.770504	-3.29345	-0.162576	-0.162576	11	-0.04516	0	-0.0829839	1600	0.04516	0.000000000000000E+000	0.04516	0.0000000E+000	0.000000000000000E+000	0.00253762
2	0	0	0	0	0	0	42.5	-0.770002	-0.770333	-3.21886	-0.165201	-0.165201	11	-0.0458893	0	-0.178445	1600	0.0458893	0.000000000000000E+000	0.0458893	0.0000000E+000	0.000000000000000E+000	0.00247959
2	0	0	0	0	0	0	43.3	-0.770002	-0.770409	-3.06958	-0.167644	-0.167644	11	-0.0465677	0	-0.216629	1600	0.0465677	0.000000000000000E+000	0.0465677	0.0000000E+000	0.000000000000000E+000	0.00236483
2	0	0	0	0	0	0	44.1	-0.770002	-0.77039	-3.10789	-0.170128	-0.170128	11	-0.0472579	0	-0.197537	1600	0.0472579	0.000000000000000E+000	0.0472579	0.0000000E+000	0.000000000000000E+000	0.00239429
2	0	0	0	0	0	0	44.9	-0.770002	-0.770199	-3.10547	-0.172614	-0.172614	11	-0.0479484	0	-0.216629	1600	0.0479484	0.000000000000000E+000	0.0479484	0.0000000E+000	0.000000000000000E+000	0.00239183
2	0	0	0	0	0	0	45.7	-0.770002	-0.770485	-3.10157	-0.175097	-0.175097	11	-0.0486382	0	-0.14026	1600	0.0486382	0.000000000000000E+000	0.0486382	0.0000000E+000	0.000000000000000E+000	0.00238972
2	0	0	0	0	0	0	46.5	-0.770002	-0.770314	-3.09911	-0.177578	-0.177578	11	-0.0493273	0	-0.102076	1600	0.0493273	0.000000000000000E+000	0.0493273	0.0000000E+000	0.000000000000000E+000	0.00238729
2	0	0	0	0	0	0	47.3	-0.770002	-0.77039	-3.09512	-0.180057	-0.180057	11	-0.0500159	0	-0.159353	1600	0.0500159	0.000000000000000E+000	0.0500159	0.0000000E+000	0.000000000000000E+000	0.00238445
2	0	0	0	0	0	0	48.1	-0.770002	-0.770333	-3.09146	-0.182532	-0.182532	11	-0.0507034	0	-0.235721	1600	0.0507034	0.000000000000000E+000	0.0507034	0.0000000E+000	0.000000000000000E+000	0.00238146
2	0	0	0	0	0	0	48.9	-0.770002	-0.770294	-3.08815	-0.185005	-0.185005	11	-0.0513903	0	-0.216629	1600	0.0513903	0.000000000000000E+000	0.0513903	0.0000000E+000	0.000000000000000E+000	0.00237879
2	0	0	0	0	0	0	49.7	-0.770002	-0.770371	-3.08499	-0.187474	-0.187474	11	-0.0520762	0	-0.178445	1600	0.0520762	0.000000000000000E+000	0.0520762	0.0000000E+000	0.000000000000000E+000	0.00237659
2	0	0	0	0	0	0	50.5	-0.770002	-0.77039	-3.08494	-0.189941	-0.189941	11	-0.0527613	0	-0.216629	1600	0.0527613	0.000000000000000E+000	0.0527613	0.0000000E+000	0.000000000000000E+000	0.00237661
2	0	0	0	0	0	0	51.3	-0.770002	-0.770447	-3.0782	-0.192404	-0.192404	11	-0.0534456	0	-0.216629	1600	0.0534456	0.000000000000000E+000	0.0534456	0.0000000E+000	0.000000000000000E+000	0.00237159
2	0	0	0	0	0	0	52.1	-0.770002	-0.770294	-3.07537	-0.194864	-0.194864	11	-0.0541289	0	-0.235721	1600	0.0541289	0.000000000000000E+000	0.0541289	0.0000000E+000	0.000000000000000E+000	0.00236894
2	0	0	0	0	0	0	52.9	-0.770002	-0.770409	-3.07325	-0.197321	-0.197321	11	-0.0548114	0	-0.216629	1600	0.0548114	0.000000000000000E+000	0.0548114	0.0000000E+000	0.000000000000000E+000	0.00236766
2	0	0	0	0	0	0	53.7	-0.770002	-0.770504	-3.06634	-0.199775	-0.199775	11	-0.0554931	0	-0.159353	1600	0.0554931	0.000000000000000E+000	0.0554931	0.0000000E+000	0.000000000000000E+000	0.00236263
2	0	0	0	0	0	0	54.5	-0.770002	-0.770314	-3.02518	-0.202215	-0.202215	11	-0.0561709	0	-0.14026	1600	0.0561709	0.000000000000000E+000	0.0561709	0.0000000E+000	0.000000000000000E+000	0.00233033
2	0	0	0	0	0	0	55.3	-0.770002	-0.77039	-2.92621	-0.204589	-0.204589	11	-0.0568303	0	-0.273906	1600	0.0568303	0.000000000000000E+000	0.0568303	0.0000000E+000	0.000000000000000E+000	0.00225432
2	0	0	0	0	0	0	56.1	-0.770002	-0.77039	-2.92469	-0.206927	-0.206927	11	-0.0574798	0	-0.235721	1600	0.0574798	0.000000000000000E+000	0.0574798	0.0000000E+000	0.000000000000000E+000	0.00225315
2	0	0	0	0	0	0	56.9	-0.770002	-0.770447	-2.92446	-0.209267	-0.209267	11	-0.0581297	0	-0.197537	1600	0.0581297	0.000000000000000E+000	0.0581297	0.0000000E+000	0.000000000000000E+000	0.00225314
2	0	0	0	0	0	0	57.7	-0.770002	-0.770466	-2.92145	-0.211605	-0.211605	11	-0.0587792	0	-0.216629	1600	0.0587792	0.000000000000000E+000	0.0587792	0.0000000E+000	0.000000000000000E+000	0.00225088
2	0	0	0	0	0	0	58.5	-0.770002	-0.770294	-2.91904	-0.213941	-0.213941	11	-0.0594281	0	-0.121168	1600	0.0594281	0.000000000000000E+000	0.0594281	0.0000000E+000	0.000000000000000E+000	0.00224852
2	0	0	0	0	0	0	59.3	-0.770002	-0.770218	-2.91564	-0.216274	-0.216274	11	-0.0600761	0	-0.159353	1600	0.0600761	0.000000000000000E+000	0.0600761	0.0000000E+000	0.000000000000000E+000	0.00224568
2	0	0	0	0	0	0	60.1	-0.770002	-0.770428	-2.91128	-0.218605	-0.218605	11	-0.0607237	0	-0.159353	1600	0.0607237	0.000000000000000E+000	0.0607237	0.0000000E+000	0.000000000000000E+000	0.00224293
2	0	0	0	0	0	0	60.9	-0.770002	-0.77039	-2.91004	-0.220934	-0.220934	11	-0.0613705	0	-0.178445	1600	0.0613705	0.000000000000000E+000	0.0613705	0.0000000E+000	0.000000000000000E+000	0.00224187
2	0	0	0	0	0	0	61.7	-0.770002	-0.770218	-2.90863	-0.223261	-0.223261	11	-0.062017	0	-0.178445	1600	0.062017	0.000000000000000E+000	0.062017	0.0000000E+000	0.000000000000000E+000	0.00224028
2	0	0	0	0	0	0	62.5	-0.770002	-0.770314	-2.90339	-0.225586	-0.225586	11	-0.0626628	0	-0.273906	1600	0.0626628	0.000000000000000E+000	0.0626628	0.0000000E+000	0.000000000000000E+000	0.00223652
2	0	0	0	0	0	0	63.3	-0.770002	-0.770428	-2.90103	-0.227908	-0.227908	11	-0.0633077	0	-0.254813	1600	0.0633077	0.000000000000000E+000	0.0633077	0.0000000E+000	0.000000000000000E+000	0.00223503
2	0	0	0	0	0	0	64.1	-0.770002	-0.770294	-2.89755	-0.230227	-0.230227	11	-0.063952	0	-0.31209	1600	0.063952	0.000000000000000E+000	0.063952	0.0000000E+000	0.000000000000000E+000	0.00223197
2	0	0	0	0	0	0	64.9	-0.770002	-0.770333	-2.89577	-0.232546	-0.232546	11	-0.064596	0	-0.14026	1600	0.064596	0.000000000000000E+000	0.064596	0.0000000E+000	0.000000000000000E+000	0.00223071
2	0	0	0	0	0	0	65.7	-0.770002	-0.770428	-2.87148	-0.234859	-0.234859	11	-0.0652386	0	-0.121168	1600	0.0652386	0.000000000000000E+000	0.0652386	0.0000000E+000	0.000000000000000E+000	0.00221227
2	0	0	0	0	0	0	66.5	-0.770002	-0.77039	-2.73722	-0.237095	-0.237095	11	-0.0658598	0	-0.216629	1600	0.0658598	0.000000000000000E+000	0.0658598	0.0000000E+000	0.000000000000000E+000	0.00210872
2	0	0	0	0	0	0	67.3	-0.770002	-0.770371	-2.61764	-0.239223	-0.239223	11	-0.066451	0	-0.14026	1600	0.066451	0.000000000000000E+000	0.066451	0.0000000E+000	0.000000000000000E+000	0.00201655
2	0	0	0	0	0	0	68.1	-0.770002	-0.77039	-2.61628	-0.24131	-0.24131	11	-0.0670306	0	-0.159353	1600	0.0670306	0.000000000000000E+000	0.0670306	0.0000000E+000	0.000000000000000E+000	0.00201556
2	0	0	0	0	0	0	68.9	-0.770002	-0.770428	-2.61486	-0.243403	-0.243403	11	-0.067612	0	-0.121168	1600	0.067612	0.000000000000000E+000	0.067612	0.0000000E+000	0.000000000000000E+000	0.00201456
2	0	0	0	0	0	0	69.7	-0.770002	-0.770294	-2.61501	-0.245496	-0.245496	11	-0.0681932	0	-0.178445	1600	0.0681932	0.000000000000000E+000	0.0681932	0.0000000E+000	0.000000000000000E+000	0.00201433
2	0	0	0	0	0	0	70.5	-0.770002	-0.770428	-2.60545	-0.247583	-0.247583	11	-0.0687732	0	-0.159353	1600	0.0687732	0.000000000000000E+000	0.0687732	0.0000000E+000	0.000000000000000E+000	0.00200731
2	0	0	0	0	0	0	71.3	-0.770002	-0.770504	-2.60635	-0.249669	-0.249669	11	-0.0693525	0	-0.31209	1600	0.0693525	0.000000000000000E+000	0.0693525	0.0000000E+000	0.000000000000000E+000	0.00200821
2	0	0	0	0	0	0	72.1	-0.770002	-0.770333	-2.60541	-0.251753	-0.251753	11	-0.0699315	0	-0.235721	1600	0.0699315	0.000000000000000E+000	0.0699315	0.0000000E+000	0.000000000000000E+000	0.00200703
2	0	0	0	0	0	0	72.9	-0.770002	-0.770294	-2.59961	-0.253835	-0.253835	11	-0.0705098	0	-0.14026	1600	0.0705098	0.000000000000000E+000	0.0705098	0.0000000E+000	0.000000000000000E+000	0.00200246
2	0	0	0	0	0	0	73.7	-0.770002	-0.770371	-2.60283	-0.255917	-0.255917	11	-0.071088	0	-0.159353	1600	0.071088	0.000000000000000E+000	0.071088	0.0000000E+000	0.000000000000000E+000	0.00200515
2	0	0	0	0	0	0	74.5	-0.770002	-0.77039	-2.59538	-0.257996	-0.257996	11	-0.0716654	0	-0.159353	1600	0.0716654	0.000000000000000E+000	0.0716654	0.0000000E+000	0.000000000000000E+000	0.00199945
2	0	0	0	0	0	0	75.3	-0.770002	-0.770466	-2.59713	-0.260074	-0.260074	11	-0.0722428	0	-0.178445	1600	0.0722428	0.000000000000000E+000	0.0722428	0.0000000E+000	0.000000000000000E+000	0.002001
2	0	0	0	0	0	0	76.1	-0.770002	-0.770447	-2.59539	-0.26215	-0.26215	11	-0.0728195	0	-0.0638917	1600	0.0728195	0.000000000000000E+000	0.0728195	0.0000000E+000	0.000000000000000E+000	0.00199961
2	0	0	0	0	0	0	76.9	-0.770002	-0.770409	-2.59256	-0.264225	-0.264225	11	-0.0733958	0	-0.102076	1600	0.0733958	0.000000000000000E+000	0.0733958	0.0000000E+000	0.000000000000000E+000	0.00199733
2	0	0	0	0	0	0	77.7	-0.770002	-0.770428	-2.59606	-0.2663	-0.2663	11	-0.0739722	0	-0.235721	1600	0.0739722	0.000000000000000E+000	0.0739722	0.0000000E+000	0.000000000000000E+000	0.00200008
2	0	0	0	0	0	0	78.5	-0.770002	-0.770333	-2.58704	-0.268372	-0.268372	11	-0.0745478	0	-0.14026	1600	0.0745478	0.000000000000000E+000	0.0745478	0.0000000E+000	0.000000000000000E+000	0.00199288
2	0	0	0	0	0	0	79.3	-0.770002	-0.770371	-2.58731	-0.270444	-0.270444	11	-0.0751233	0	-0.216629	1600	0.0751233	0.000000000000000E+000	0.0751233	0.0000000E+000	0.000000000000000E+000	0.00199319
2	0	0	0	0	0	0	80.1	-0.770002	-0.77039	-2.58912	-0.272514	-0.272514	11	-0.0756984	0	-0.159353	1600	0.0756984	0.000000000000000E+000	0.0756984	0.0000000E+000	0.000000000000000E+000	0.00199463
2	0	0	0	0	0	0	80.9	-0.770002	-0.770485	-2.58037	-0.274582	-0.274582	11	-0.0762728	0	-0.254813	1600	0.0762728	0.000000000000000E+000	0.0762728	0.0000000E+000	0.000000000000000E+000	0.00198814
2	0	0	0	0	0	0	81.7	-0.770002	-0.770237	-2.58272	-0.276649	-0.276649	11	-0.076847	0	-0.254813	1600	0.076847	0.000000000000000E+000	0.076847	0.0000000E+000	0.000000000000000E+000	0.00198931
2	0	0	0	0	0	0	82.5	-0.770002	-0.770371	-2.4556	-0.278664	-0.278664	11	-0.0774067	0	-0.273906	1600	0.0774067	0.000000000000000E+000	0.0774067	0.0000000E+000	0.000000000000000E+000	0.00189172
2	0	0	0	0	0	0	83.3	-0.770002	-0.770371	-2.39976	-0.280595	-0.280595	11	-0.0779431	0	-0.178445	1600	0.0779431	0.000000000000000E+000	0.0779431	0.0000000E+000	0.000000000000000E+000	0.00184871
2	0	0	0	0	0	0	84.1	-0.770002	-0.770314	-2.386	-0.282505	-0.282505	11	-0.0784737	0	-0.159353	1600	0.0784737	0.000000000000000E+000	0.0784737	0.0000000E+000	0.000000000000000E+000	0.00183797
2	0	0	0	0	0	0	84.9	-0.770002	-0.77039	-2.38285	-0.284412	-0.284412	11	-0.0790034	0	-0.216629	1600	0.0790034	0.000000000000000E+000	0.0790034	0.0000000E+000	0.000000000000000E+000	0.00183573
2	0	0	0	0	0	0	85.7	-0.770002	-0.770371	-2.37958	-0.286317	-0.286317	11	-0.0795326	0	-0.292998	1600	0.0795326	0.000000000000000E+000	0.0795326	0.0000000E+000	0.000000000000000E+000	0.00183316
2	0	0	0	0	0	0	86.5	-0.770002	-0.770333	-2.37475	-0.28822	-0.28822	11	-0.0800612	0	-0.197537	1600	0.0800612	0.000000000000000E+000	0.0800612	0.0000000E+000	0.000000000000000E+000	0.00182935
2	0	0	0	0	0	0	87.3	-0.770002	-0.770275	-2.37128	-0.29012	-0.29012	11	-0.0805888	0	-0.216629	1600	0.0805888	0.000000000000000E+000	0.0805888	0.0000000E+000	0.000000000000000E+000	0.00182654
2	0	0	0	0	0	0	88.1	-0.770002	-0.770466	-2.36872	-0.292017	-0.292017	11	-0.0811159	0	-0.197537	1600	0.0811159	0.000000000000000E+000	0.0811159	0.0000000E+000	0.000000000000000E+000	0.00182502
2	0	0	0	0	0	0	88.9	-0.770002	-0.770428	-2.37044	-0.293914	-0.293914	11	-0.0816428	0	-0.216629	1600	0.0816428	0.000000000000000E+000	0.0816428	0.0000000E+000	0.000000000000000E+000	0.00182625
2	0	0	0	0	0	0	89.7	-0.770002	-0.770428	-2.37082	-0.295812	-0.295812	11	-0.0821699	0	-0.235721	1600	0.0821699	0.000000000000000E+000	0.0821699	0.0000000E+000	0.000000000000000E+000	0.00182655
2	0	0	0	0	0	0	90.5	-0.770002	-0.770314	-2.37226	-0.297709	-0.297709	11	-0.0826968	0	-0.216629	1600	0.0826968	0.000000000000000E+000	0.0826968	0.0000000E+000	0.000000000000000E+000	0.00182738
2	0	0	0	0	0	0	91.3	-0.770002	-0.770352	-2.37291	-0.299605	-0.299605	11	-0.0832236	0	-0.292998	1600	0.0832236	0.000000000000000E+000	0.0832236	0.0000000E+000	0.000000000000000E+000	0.00182798
2	0	0	0	0	0	0	92.1	-0.770002	-0.770352	-2.37153	-0.301501	-0.301501	11	-0.0837502	0	-0.31209	1600	0.0837502	0.000000000000000E+000	0.0837502	0.0000000E+000	0.000000000000000E+000	0.00182691
2	0	0	0	0	0	0	92.9	-0.770002	-0.770371	-2.36825	-0.303394	-0.303394	11	-0.0842762	0	-0.254813	1600	0.0842762	0.000000000000000E+000	0.0842762	0.0000000E+000	0.000000000000000E+000	0.00182443
2	0	0	0	0	0	0	93.7	-0.770002	-0.770371	-2.36516	-0.305287	-0.305287	11	-0.0848019	0	-0.197537	1600	0.0848019	0.000000000000000E+000	0.0848019	0.0000000E+000	0.000000000000000E+000	0.00182205
2	0	0	0	0	0	0	94.5	-0.770002	-0.770314	-2.36509	-0.307179	-0.307179	11	-0.0853274	0	-0.216629	1600	0.0853274	0.000000000000000E+000	0.0853274	0.0000000E+000	0.000000000000000E+000	0.00182186
2	0	0	0	0	0	0	95.3	-0.770002	-0.77039	-2.23793	-0.309033	-0.309033	11	-0.0858426	0	-0.178445	1600	0.0858426	0.000000000000000E+000	0.0858426	0.0000000E+000	0.000000000000000E+000	0.00172408
2	0	0	0	0	0	0	96.1	-0.770002	-0.770409	-2.14146	-0.310771	-0.310771	11	-0.0863253	0	-0.331182	1600	0.0863253	0.000000000000000E+000	0.0863253	0.0000000E+000	0.000000000000000E+000	0.0016498
2	0	0	0	0	0	0	96.9	-0.770002	-0.770294	-2.12155	-0.312476	-0.312476	11	-0.0867989	0	-0.197537	1600	0.0867989	0.000000000000000E+000	0.0867989	0.0000000E+000	0.000000000000000E+000	0.00163422
2	0	0	0	0	0	0	97.7	-0.770002	-0.770352	-2.11903	-0.314173	-0.314173	11	-0.0872702	0	-0.254813	1600	0.0872702	0.000000000000000E+000	0.0872702	0.0000000E+000	0.000000000000000E+000	0.0016324
2	0	0	0	0	0	0	98.5	-0.770002	-0.770371	-2.11808	-0.315865	-0.315865	11	-0.0877403	0	-0.121168	1600	0.0877403	0.000000000000000E+000	0.0877403	0.0000000E+000	0.000000000000000E+000	0.00163171
2	0	0	0	0	0	0	99.3	-0.770002	-0.770371	-2.11406	-0.317555	-0.317555	11	-0.0882098	0	-0.14026	1600	0.0882098	0.000000000000000E+000	0.0882098	0.0000000E+000	0.000000000000000E+000	0.00162861
2	0	0	0	0	0	0	100.1	-0.770002	-0.770333	-2.10756	-0.319244	-0.319244	11	-0.0886788	0	-0.216629	1600	0.0886788	0.000000000000000E+000	0.0886788	0.0000000E+000	0.000000000000000E+000	0.00162352
2	0	0	0	0	0	0	100.9	-0.770002	-0.770409	-2.10747	-0.320932	-0.320932	11	-0.0891478	0	-0.350274	1600	0.0891478	0.000000000000000E+000	0.0891478	0.0000000E+000	0.000000000000000E+000	0.00162361
2	0	0	0	0	0	0	101.7	-0.770002	-0.770352	-2.10659	-0.322621	-0.322621	11	-0.0896168	0	-0.197537	1600	0.0896168	0.000000000000000E+000	0.0896168	0.0000000E+000	0.000000000000000E+000	0.00162281
2	0	0	0	0	0	0	102.5	-0.770002	-0.770466	-2.10749	-0.324308	-0.324308	11	-0.0900855	0	-0.254813	1600	0.0900855	0.000000000000000E+000	0.0900855	0.0000000E+000	0.000000000000000E+000	0.00162375
2	0	0	0	0	0	0	103.3	-0.770002	-0.770275	-2.11084	-0.325994	-0.325994	11	-0.0905538	0	-0.235721	1600	0.0905538	0.000000000000000E+000	0.0905538	0.0000000E+000	0.000000000000000E+000	0.00162593
2	0	0	0	0	0	0	104.1	-0.770002	-0.77039	-2.1098	-0.327679	-0.327679	11	-0.0910219	0	-0.273906	1600	0.0910219	0.000000000000000E+000	0.0910219	0.0000000E+000	0.000000000000000E+000	0.00162537
2	0	0	0	0	0	0	104.9	-0.770002	-0.770371	-2.10273	-0.329364	-0.329364	11	-0.09149	0	-0.273906	1600	0.09149	0.000000000000000E+000	0.09149	0.0000000E+000	0.000000000000000E+000	0.00161988
2	0	0	0	0	0	0	105.7	-0.770002	-0.77039	-2.10255	-0.331049	-0.331049	11	-0.0919581	0	-0.273906	1600	0.0919581	0.000000000000000E+000	0.0919581	0.0000000E+000	0.000000000000000E+000	0.00161978
2	0	0	0	0	0	0	106.5	-0.770002	-0.770294	-2.10284	-0.332734	-0.332734	11	-0.0924261	0	-0.159353	1600	0.0924261	0.000000000000000E+000	0.0924261	0.0000000E+000	0.000000000000000E+000	0.00161981
2	0	0	0	0	0	0	107.3	-0.770002	-0.770409	-2.10457	-0.334417	-0.334417	11	-0.0928938	0	-0.197537	1600	0.0928938	0.000000000000000E+000	0.0928938	0.0000000E+000	0.000000000000000E+000	0.00162138
2	0	0	0	0	0	0	108.1	-0.770002	-0.770371	-2.0849	-0.336095	-0.336095	11	-0.0933597	0	-0.254813	1600	0.0933597	0.000000000000000E+000	0.0933597	0.0000000E+000	0.000000000000000E+000	0.00160615
2	0	0	0	0	0	0	108.9	-0.770002	-0.770294	-2.01874	-0.337734	-0.337734	11	-0.0938151	0	-0.178445	1600	0.0938151	0.000000000000000E+000	0.0938151	0.0000000E+000	0.000000000000000E+000	0.00155502
2	0	0	0	0	0	0	109.7	-0.770002	-0.770371	-1.95473	-0.33932	-0.33932	11	-0.0942554	0	-0.254813	1600	0.0942554	0.000000000000000E+000	0.0942554	0.0000000E+000	0.000000000000000E+000	0.00150586
2	0	0	0	0	0	0	110.5	-0.770002	-0.770256	-1.93076	-0.340872	-0.340872	11	-0.0946866	0	-0.254813	1600	0.0946866	0.000000000000000E+000	0.0946866	0.0000000E+000	0.000000000000000E+000	0.00148718
2	0	0	0	0	0	0	111.3	-0.770002	-0.770218	-1.91618	-0.342409	-0.342409	11	-0.0951135	0	-0.178445	1600	0.0951135	0.000000000000000E+000	0.0951135	0.0000000E+000	0.000000000000000E+000	0.00147587
2	0	0	0	0	0	0	112.1	-0.770002	-0.77039	-1.90905	-0.343938	-0.343938	11	-0.0955385	0	-0.159353	1600	0.0955385	0.000000000000000E+000	0.0955385	0.0000000E+000	0.000000000000000E+000	0.00147071
2	0	0	0	0	0	0	112.9	-0.770002	-0.770352	-1.90683	-0.345465	-0.345465	11	-0.0959624	0	-0.178445	1600	0.0959624	0.000000000000000E+000	0.0959624	0.0000000E+000	0.000000000000000E+000	0.00146893
2	0	0	0	0	0	0	113.7	-0.770002	-0.770333	-1.90864	-0.346991	-0.346991	11	-0.0963863	0	-0.235721	1600	0.0963863	0.000000000000000E+000	0.0963863	0.0000000E+000	0.000000000000000E+000	0.00147028
2	0	0	0	0	0	0	114.5	-0.770002	-0.770352	-1.90257	-0.348515	-0.348515	11	-0.0968098	0	-0.273906	1600	0.0968098	0.000000000000000E+000	0.0968098	0.0000000E+000	0.000000000000000E+000	0.00146565
2	0	0	0	0	0	0	115.3	-0.770002	-0.770428	-1.90008	-0.350039	-0.350039	11	-0.0972332	0	-0.14026	1600	0.0972332	0.000000000000000E+000	0.0972332	0.0000000E+000	0.000000000000000E+000	0.00146388
2	0	0	0	0	0	0	116.1	-0.770002	-0.770466	-1.90734	-0.351564	-0.351564	11	-0.0976566	0	-0.254813	1600	0.0976566	0.000000000000000E+000	0.0976566	0.0000000E+000	0.000000000000000E+000	0.00146954
2	0	0	0	0	0	0	116.9	-0.770002	-0.770256	-1.9029	-0.353088	-0.353088	11	-0.0980799	0	-0.102076	1600	0.0980799	0.000000000000000E+000	0.0980799	0.0000000E+000	0.000000000000000E+000	0.00146572
2	0	0	0	0	0	0	117.7	-0.770002	-0.770352	-1.9009	-0.35461	-0.35461	11	-0.0985027	0	-0.254813	1600	0.0985027	0.000000000000000E+000	0.0985027	0.0000000E+000	0.000000000000000E+000	0.00146436
2	0	0	0	0	0	0	118.5	-0.770002	-0.770371	-1.90487	-0.356132	-0.356132	11	-0.0989256	0	-0.235721	1600	0.0989256	0.000000000000000E+000	0.0989256	0.0000000E+000	0.000000000000000E+000	0.00146746
2	0	0	0	0	0	0	119.3	-0.770002	-0.770428	-1.90364	-0.357654	-0.357654	11	-0.0993483	0	-0.197537	1600	0.0993483	0.000000000000000E+000	0.0993483	0.0000000E+000	0.000000000000000E+000	0.00146662
2	0	0	0	0	0	0	120.1	-0.770002	-0.770333	-1.89988	-0.359174	-0.359174	11	-0.0997707	0	-0.197537	1600	0.0997707	0.000000000000000E+000	0.0997707	0.0000000E+000	0.000000000000000E+000	0.00146354
2	0	0	0	0	0	0	120.9	-0.770002	-0.770371	-1.8989	-0.360694	-0.360694	11	-0.100193	0	-0.254813	1600	0.100193	0.000000000000000E+000	0.100193	0.0000000E+000	0.000000000000000E+000	0.00146286
2	0	0	0	0	0	0	121.7	-0.770002	-0.770256	-1.90443	-0.362215	-0.362215	11	-0.100615	0	-0.216629	1600	0.100615	0.000000000000000E+000	0.100615	0.0000000E+000	0.000000000000000E+000	0.0014669
2	0	0	0	0	0	0	122.5	-0.770002	-0.770352	-1.90641	-0.363736	-0.363736	11	-0.101038	0	-0.292998	1600	0.101038	0.000000000000000E+000	0.101038	0.0000000E+000	0.000000000000000E+000	0.00146861
2	0	0	0	0	0	0	123.3	-0.770002	-0.770294	-1.98524	-0.365293	-0.365293	11	-0.10147	0	-0.102076	1600	0.10147	0.000000000000000E+000	0.10147	0.0000000E+000	0.000000000000000E+000	0.00152922
2	0	0	0	0	0	0	124.1	-0.770002	-0.770352	-2.05782	-0.366916	-0.366916	11	-0.101921	0	-0.14026	1600	0.101921	0.000000000000000E+000	0.101921	0.0000000E+000	0.000000000000000E+000	0.00158524
2	0	0	0	0	0	0	124.9	-0.770002	-0.770237	-2.07936	-0.368571	-0.368571	11	-0.102381	0	-0.216629	1600	0.102381	0.000000000000000E+000	0.102381	0.0000000E+000	0.000000000000000E+000	0.0016016
2	0	0	0	0	0	0	125.7	-0.770002	-0.770333	-2.08001	-0.370237	-0.370237	11	-0.102844	0	-0.197537	1600	0.102844	0.000000000000000E+000	0.102844	0.0000000E+000	0.000000000000000E+000	0.0016023
2	0	0	0	0	0	0	126.5	-0.770002	-0.770352	-2.08191	-0.371905	-0.371905	11	-0.103307	0	-0.159353	1600	0.103307	0.000000000000000E+000	0.103307	0.0000000E+000	0.000000000000000E+000	0.0016038
2	0	0	0	0	0	0	127.3	-0.770002	-0.770218	-2.08455	-0.373575	-0.373575	11	-0.103771	0	-0.197537	1600	0.103771	0.000000000000000E+000	0.103771	0.0000000E+000	0.000000000000000E+000	0.00160556
2	0	0	0	0	0	0	128.1	-0.770002	-0.770371	-2.08954	-0.375244	-0.375244	11	-0.104234	0	-0.216629	1600	0.104234	0.000000000000000E+000	0.104234	0.0000000E+000	0.000000000000000E+000	0.00160972
2	0	0	0	0	0	0	128.9	-0.770002	-0.770352	-2.09029	-0.376913	-0.376913	11	-0.104698	0	-0.197537	1600	0.104698	0.000000000000000E+000	0.104698	0.0000000E+000	0.000000000000000E+000	0.00161026
2	0	0	0	0	0	0	129.7	-0.770002	-0.770314	-2.0863	-0.378581	-0.378581	11	-0.105162	0	-0.197537	1600	0.105162	0.000000000000000E+000	0.105162	0.0000000E+000	0.000000000000000E+000	0.0016071
2	0	0	0	0	0	0	130.5	-0.770002	-0.770275	-2.08139	-0.380249	-0.380249	11	-0.105625	0	-0.235721	1600	0.105625	0.000000000000000E+000	0.105625	0.0000000E+000	0.000000000000000E+000	0.00160324
2	0	0	0	0	0	0	131.3	-0.770002	-0.770275	-2.0789	-0.381917	-0.381917	11	-0.106088	0	-0.102076	1600	0.106088	0.000000000000000E+000	0.106088	0.0000000E+000	0.000000000000000E+000	0.00160133
2	0	0	0	0	0	0	132.1	-0.770002	-0.770333	-2.07933	-0.383583	-0.383583	11	-0.106551	0	-0.197537	1600	0.106551	0.000000000000000E+000	0.106551	0.0000000E+000	0.000000000000000E+000	0.00160178
2	0	0	0	0	0	0	132.9	-0.770002	-0.770218	-2.08374	-0.385249	-0.385249	11	-0.107014	0	-0.235721	1600	0.107014	0.000000000000000E+000	0.107014	0.0000000E+000	0.000000000000000E+000	0.00160494
2	0	0	0	0	0	0	133.7	-0.770002	-0.770371	-2.08475	-0.386914	-0.386914	11	-0.107476	0	-0.273906	1600	0.107476	0.000000000000000E+000	0.107476	0.0000000E+000	0.000000000000000E+000	0.00160603
2	0	0	0	0	0	0	134.5	-0.770002	-0.770504	-2.08252	-0.388577	-0.388577	11	-0.107938	0	-0.14026	1600	0.107938	0.000000000000000E+000	0.107938	0.0000000E+000	0.000000000000000E+000	0.00160459
2	0	0	0	0	0	0	135.3	-0.770002	-0.770485	-2.25922	-0.390307	-0.390307	11	-0.108419	0	-0.121168	1600	0.108419	0.000000000000000E+000	0.108419	0.0000000E+000	0.000000000000000E+000	0.00174069
2	0	0	0	0	0	0	136.1	-0.770002	-0.770237	-2.3097	-0.392149	-0.392149	11	-0.10893	0	-0.216629	1600	0.10893	0.000000000000000E+000	0.10893	0.0000000E+000	0.000000000000000E+000	0.00177902
2	0	0	0	0	0	0	136.9	-0.770002	-0.77018	-2.31091	-0.393999	-0.393999	11	-0.109444	0	-0.31209	1600	0.109444	0.000000000000000E+000	0.109444	0.0000000E+000	0.000000000000000E+000	0.00177981
2	0	0	0	0	0	0	137.7	-0.770002	-0.770333	-2.30769	-0.39585	-0.39585	11	-0.109958	0	-0.178445	1600	0.109958	0.000000000000000E+000	0.109958	0.0000000E+000	0.000000000000000E+000	0.00177769
2	0	0	0	0	0	0	138.5	-0.770002	-0.770371	-2.30762	-0.397701	-0.397701	11	-0.110472	0	-0.235721	1600	0.110472	0.000000000000000E+000	0.110472	0.0000000E+000	0.000000000000000E+000	0.00177773
2	0	0	0	0	0	0	139.3	-0.770002	-0.770447	-2.30904	-0.399549	-0.399549	11	-0.110986	0	-0.178445	1600	0.110986	0.000000000000000E+000	0.110986	0.0000000E+000	0.000000000000000E+000	0.001779
2	0	0	0	0	0	0	140.1	-0.770002	-0.770294	-2.31052	-0.401398	-0.401398	11	-0.111499	0	-0.178445	1600	0.111499	0.000000000000000E+000	0.111499	0.0000000E+000	0.000000000000000E+000	0.00177978
2	0	0	0	0	0	0	140.9	-0.770002	-0.770333	-2.31191	-0.403247	-0.403247	11	-0.112013	0	-0.197537	1600	0.112013	0.000000000000000E+000	0.112013	0.0000000E+000	0.000000000000000E+000	0.00178094
2	0	0	0	0	0	0	141.7	-0.770002	-0.770352	-2.31356	-0.405095	-0.405095	11	-0.112526	0	-0.178445	1600	0.112526	0.000000000000000E+000	0.112526	0.0000000E+000	0.000000000000000E+000	0.00178226
2	0	0	0	0	0	0	142.5	-0.770002	-0.770333	-2.31528	-0.406943	-0.406943	11	-0.11304	0	-0.216629	1600	0.11304	0.000000000000000E+000	0.11304	0.0000000E+000	0.000000000000000E+000	0.00178353
2	0	0	0	0	0	0	143.3	-0.770002	-0.77039	-2.31418	-0.408792	-0.408792	11	-0.113553	0	-0.235721	1600	0.113553	0.000000000000000E+000	0.113553	0.0000000E+000	0.000000000000000E+000	0.00178282
2	0	0	0	0	0	0	144.1	-0.770002	-0.770409	-2.31051	-0.410639	-0.410639	11	-0.114066	0	-0.197537	1600	0.114066	0.000000000000000E+000	0.114066	0.0000000E+000	0.000000000000000E+000	0.00178004
2	0	0	0	0	0	0	144.9	-0.770002	-0.770352	-2.37107	-0.412495	-0.412495	11	-0.114582	0	-0.254813	1600	0.114582	0.000000000000000E+000	0.114582	0.0000000E+000	0.000000000000000E+000	0.00182655
2	0	0	0	0	0	0	145.7	-0.770002	-0.770524	-2.47649	-0.414454	-0.414454	11	-0.115126	0	-0.254813	1600	0.115126	0.000000000000000E+000	0.115126	0.0000000E+000	0.000000000000000E+000	0.0019082
2	0	0	0	0	0	0	146.5	-0.770002	-0.77039	-2.49582	-0.416445	-0.416445	11	-0.115679	0	-0.102076	1600	0.115679	0.000000000000000E+000	0.115679	0.0000000E+000	0.000000000000000E+000	0.00192276
2	0	0	0	0	0	0	147.3	-0.770002	-0.770409	-2.48672	-0.418437	-0.418437	11	-0.116233	0	-0.197537	1600	0.116233	0.000000000000000E+000	0.116233	0.0000000E+000	0.000000000000000E+000	0.00191579
2	0	0	0	0	0	0	148.1	-0.770002	-0.770237	-2.49002	-0.420429	-0.420429	11	-0.116786	0	-0.159353	1600	0.116786	0.000000000000000E+000	0.116786	0.0000000E+000	0.000000000000000E+000	0.0019179
2	0	0	0	0	0	0	148.9	-0.770002	-0.770371	-2.48956	-0.42242	-0.42242	11	-0.117339	0	-0.216629	1600	0.117339	0.000000000000000E+000	0.117339	0.0000000E+000	0.000000000000000E+000	0.00191788
2	0	0	0	0	0	0	149.7	-0.770002	-0.770409	-2.48822	-0.424412	-0.424412	11	-0.117892	0	-0.235721	1600	0.117892	0.000000000000000E+000	0.117892	0.0000000E+000	0.000000000000000E+000	0.00191694
2	0	0	0	0	0	0	150.5	-0.770002	-0.770314	-2.49187	-0.426404	-0.426404	11	-0.118445	0	-0.235721	1600	0.118445	0.000000000000000E+000	0.118445	0.0000000E+000	0.000000000000000E+000	0.00191953
2	0	0	0	0	0	0	151.3	-0.770002	-0.770256	-2.48196	-0.428392	-0.428392	11	-0.118998	0	-0.178445	1600	0.118998	0.000000000000000E+000	0.118998	0.0000000E+000	0.000000000000000E+000	0.00191174
2	0	0	0	0	0	0	152.1	-0.770002	-0.770294	-2.48293	-0.43038	-0.43038	11	-0.11955	0	-0.14026	1600	0.11955	0.000000000000000E+000	0.11955	0.0000000E+000	0.000000000000000E+000	0.00191259
2	0	0	0	0	0	0	152.9	-0.770002	-0.77039	-2.48547	-0.432366	-0.432366	11	-0.120102	0	-0.254813	1600	0.120102	0.000000000000000E+000	0.120102	0.0000000E+000	0.000000000000000E+000	0.00191478
2	0	0	0	0	0	0	153.7	-0.770002	-0.770237	-2.48183	-0.434353	-0.434353	11	-0.120654	0	-0.197537	1600	0.120654	0.000000000000000E+000	0.120654	0.0000000E+000	0.000000000000000E+000	0.0019116
2	0	0	0	0	0	0	154.5	-0.770002	-0.770409	-2.48711	-0.436341	-0.436341	11	-0.121206	0	-0.216629	1600	0.121206	0.000000000000000E+000	0.121206	0.0000000E+000	0.000000000000000E+000	0.00191609
2	0	0	0	0	0	0	155.3	-0.770002	-0.770218	-2.51445	-0.438332	-0.438332	11	-0.121759	0	-0.273906	1600	0.121759	0.000000000000000E+000	0.121759	0.0000000E+000	0.000000000000000E+000	0.00193668
2	0	0	0	0	0	0	156.1	-0.770002	-0.770333	-2.70729	-0.440438	-0.440438	11	-0.122344	0	-0.178445	1600	0.122344	0.000000000000000E+000	0.122344	0.0000000E+000	0.000000000000000E+000	0.00208551
2	0	0	0	0	0	0	156.9	-0.770002	-0.770294	-2.72014	-0.442612	-0.442612	11	-0.122948	0	-0.197537	1600	0.122948	0.000000000000000E+000	0.122948	0.0000000E+000	0.000000000000000E+000	0.00209531
2	0	0	0	0	0	0	157.7	-0.770002	-0.770294	-2.71758	-0.444787	-0.444787	11	-0.123552	0	-0.235721	1600	0.123552	0.000000000000000E+000	0.123552	0.0000000E+000	0.000000000000000E+000	0.00209334
2	0	0	0	0	0	0	158.5	-0.770002	-0.770294	-2.71796	-0.44696	-0.44696	11	-0.124156	0	-0.216629	1600	0.124156	0.000000000000000E+000	0.124156	0.0000000E+000	0.000000000000000E+000	0.00209363
2	0	0	0	0	0	0	159.3	-0.770002	-0.770371	-2.71739	-0.449135	-0.449135	11	-0.12476	0	-0.121168	1600	0.12476	0.000000000000000E+000	0.12476	0.0000000E+000	0.000000000000000E+000	0.0020934
2	0	0	0	0	0	0	160.1	-0.770002	-0.770256	-2.71081	-0.451305	-0.451305	11	-0.125362	0	-0.254813	1600	0.125362	0.000000000000000E+000	0.125362	0.0000000E+000	0.000000000000000E+000	0.00208802
2	0	0	0	0	0	0	160.9	-0.770002	-0.770371	-2.71051	-0.453473	-0.453473	11	-0.125965	0	-0.159353	1600	0.125965	0.000000000000000E+000	0.125965	0.0000000E+000	0.000000000000000E+000	0.0020881
2	0	0	0	0	0	0	161.7	-0.770002	-0.770485	-2.70764	-0.455641	-0.455641	11	-0.126567	0	-0.178445	1600	0.126567	0.000000000000000E+000	0.126567	0.0000000E+000	0.000000000000000E+000	0.0020862
2	0	0	0	0	0	0	162.5	-0.770002	-0.770371	-2.70839	-0.457807	-0.457807	11	-0.127169	0	-0.121168	1600	0.127169	0.000000000000000E+000	0.127169	0.0000000E+000	0.000000000000000E+000	0.00208647
2	0	0	0	0	0	0	163.3	-0.770002	-0.770314	-2.70406	-0.459972	-0.459972	11	-0.12777	0	-0.0829839	1600	0.12777	0.000000000000000E+000	0.12777	0.0000000E+000	0.000000000000000E+000	0.00208297
2	0	0	0	0	0	0	164.1	-0.770002	-0.770352	-2.70548	-0.462136	-0.462136	11	-0.128371	0	-0.159353	1600	0.128371	0.000000000000000E+000	0.128371	0.0000000E+000	0.000000000000000E+000	0.00208417
2	0	0	0	0	0	0	164.9	-0.770002	-0.770428	-2.70395	-0.4643	-0.4643	11	-0.128972	0	-0.159353	1600	0.128972	0.000000000000000E+000	0.128972	0.0000000E+000	0.000000000000000E+000	0.0020832
2	0	0	0	0	0	0	165.7	-0.770002	-0.770409	-2.70176	-0.466462	-0.466462	11	-0.129573	0	-0.197537	1600	0.129573	0.000000000000000E+000	0.129573	0.0000000E+000	0.000000000000000E+000	0.00208146
2	0	0	0	0	0	0	166.5	-0.770002	-0.770314	-2.70201	-0.468623	-0.468623	11	-0.130173	0	-0.14026	1600	0.130173	0.000000000000000E+000	0.130173	0.0000000E+000	0.000000000000000E+000	0.0020814
2	0	0	0	0	0	0	167.3	-0.770002	-0.77039	-2.70033	-0.470784	-0.470784	11	-0.130773	0	-0.178445	1600	0.130773	0.000000000000000E+000	0.130773	0.0000000E+000	0.000000000000000E+000	0.00208031
2	0	0	0	0	0	0	168.1	-0.770002	-0.770409	-2.6961	-0.472942	-0.472942	11	-0.131373	0	-0.31209	1600	0.131373	0.000000000000000E+000	0.131373	0.0000000E+000	0.000000000000000E+000	0.0020771
2	0	0	0	0	0	0	168.9	-0.770002	-0.770447	-2.69739	-0.4751	-0.4751	11	-0.131972	0	-0.159353	1600	0.131972	0.000000000000000E+000	0.131972	0.0000000E+000	0.000000000000000E+000	0.00207819
2	0	0	0	0	0	0	169.7	-0.770002	-0.770409	-2.69536	-0.477257	-0.477257	11	-0.132571	0	-0.178445	1600	0.132571	0.000000000000000E+000	0.132571	0.0000000E+000	0.000000000000000E+000	0.00207653
2	0	0	0	0	0	0	170.5	-0.770002	-0.770275	-2.76278	-0.479432	-0.479432	11	-0.133176	0	-0.216629	1600	0.133176	0.000000000000000E+000	0.133176	0.0000000E+000	0.000000000000000E+000	0.0021281
2	0	0	0	0	0	0	171.3	-0.770002	-0.770409	-2.80925	-0.481668	-0.481668	11	-0.133797	0	-0.178445	1600	0.133797	0.000000000000000E+000	0.133797	0.0000000E+000	0.000000000000000E+000	0.00216427
2	0	0	0	0	0	0	172.1	-0.770002	-0.770294	-2.80542	-0.483912	-0.483912	11	-0.13442	0	-0.235721	1600	0.13442	0.000000000000000E+000	0.13442	0.0000000E+000	0.000000000000000E+000	0.002161
2	0	0	0	0	0	0	172.9	-0.770002	-0.770218	-2.80259	-0.486154	-0.486154	11	-0.135043	0	-0.216629	1600	0.135043	0.000000000000000E+000	0.135043	0.0000000E+000	0.000000000000000E+000	0.00215861
2	0	0	0	0	0	0	173.7	-0.770002	-0.770314	-2.79918	-0.488393	-0.488393	11	-0.135665	0	-0.14026	1600	0.135665	0.000000000000000E+000	0.135665	0.0000000E+000	0.000000000000000E+000	0.00215624
2	0	0	0	0	0	0	174.5	-0.770002	-0.770371	-2.79905	-0.490632	-0.490632	11	-0.136287	0	-0.14026	1600	0.136287	0.000000000000000E+000	0.136287	0.0000000E+000	0.000000000000000E+000	0.00215631
2	0	0	0	0	0	0	175.3	-0.770002	-0.770314	-2.79704	-0.492869	-0.492869	11	-0.136908	0	-0.216629	1600	0.136908	0.000000000000000E+000	0.136908	0.0000000E+000	0.000000000000000E+000	0.0021546
2	0	0	0	0	0	0	176.1	-0.770002	-0.770428	-2.79444	-0.495106	-0.495106	11	-0.137529	0	-0.178445	1600	0.137529	0.000000000000000E+000	0.137529	0.0000000E+000	0.000000000000000E+000	0.00215291
2	0	0	0	0	0	0	176.9	-0.770002	-0.770409	-2.794	-0.497341	-0.497341	11	-0.13815	0	-0.197537	1600	0.13815	0.000000000000000E+000	0.13815	0.0000000E+000	0.000000000000000E+000	0.00215252
2	0	0	0	0	0	0	177.7	-0.770002	-0.770485	-2.79087	-0.499574	-0.499574	11	-0.138771	0	-0.178445	1600	0.138771	0.000000000000000E+000	0.138771	0.0000000E+000	0.000000000000000E+000	0.00215032
2	0	0	0	0	0	0	178.5	-0.770002	-0.77039	-2.78936	-0.501807	-0.501807	11	-0.139391	0	-0.254813	1600	0.139391	0.000000000000000E+000	0.139391	0.0000000E+000	0.000000000000000E+000	0.0021489
2	0	0	0	0	0	0	179.3	-0.770002	-0.77039	-2.78814	-0.504038	-0.504038	11	-0.140011	0	-0.159353	1600	0.140011	0.000000000000000E+000	0.140011	0.0000000E+000	0.000000000000000E+000	0.00214796
2	0	0	0	0	0	0	180.1	-0.770002	-0.770352	-2.78552	-0.506268	-0.506268	11	-0.14063	0	-0.14026	1600	0.14063	0.000000000000000E+000	0.14063	0.0000000E+000	0.000000000000000E+000	0.00214583
2	0	0	0	0	0	0	180.9	-0.770002	-0.770371	-2.78393	-0.508497	-0.508497	11	-0.141249	0	-0.14026	1600	0.141249	0.000000000000000E+000	0.141249	0.0000000E+000	0.000000000000000E+000	0.00214466
2	0	0	0	0	0	0	181.7	-0.770002	-0.770447	-2.78306	-0.510726	-0.510726	11	-0.141868	0	-0.159353	1600	0.141868	0.000000000000000E+000	0.141868	0.0000000E+000	0.000000000000000E+000	0.0021442
2	0	0	0	0	0	0	182.5	-0.770002	-0.770466	-2.78176	-0.512954	-0.512954	11	-0.142487	0	-0.216629	1600	0.142487	0.000000000000000E+000	0.142487	0.0000000E+000	0.000000000000000E+000	0.00214325
2	0	0	0	0	0	0	183.3	-0.770002	-0.770333	-2.7798	-0.51518	-0.51518	11	-0.143105	0	-0.273906	1600	0.143105	0.000000000000000E+000	0.143105	0.0000000E+000	0.000000000000000E+000	0.00214137
2	0	0	0	0	0	0	184.1	-0.770002	-0.770428	-2.87045	-0.517414	-0.517414	11	-0.143726	0	-0.216629	1600	0.143726	0.000000000000000E+000	0.143726	0.0000000E+000	0.000000000000000E+000	0.00221147
2	0	0	0	0	0	0	184.9	-0.770002	-0.770314	-2.93454	-0.519766	-0.519766	11	-0.14438	0	-0.178445	1600	0.14438	0.000000000000000E+000	0.14438	0.0000000E+000	0.000000000000000E+000	0.00226052
2	0	0	0	0	0	0	185.7	-0.770002	-0.77039	-2.90996	-0.522101	-0.522101	11	-0.145028	0	-0.216629	1600	0.145028	0.000000000000000E+000	0.145028	0.0000000E+000	0.000000000000000E+000	0.0022418
2	0	0	0	0	0	0	186.5	-0.770002	-0.770409	-2.90887	-0.524428	-0.524428	11	-0.145675	0	-0.197537	1600	0.145675	0.000000000000000E+000	0.145675	0.0000000E+000	0.000000000000000E+000	0.00224102
2	0	0	0	0	0	0	187.3	-0.770002	-0.770543	-2.90558	-0.526754	-0.526754	11	-0.146321	0	-0.254813	1600	0.146321	0.000000000000000E+000	0.146321	0.0000000E+000	0.000000000000000E+000	0.00223887
2	0	0	0	0	0	0	188.1	-0.770002	-0.770314	-2.90491	-0.529079	-0.529079	11	-0.146966	0	-0.121168	1600	0.146966	0.000000000000000E+000	0.146966	0.0000000E+000	0.000000000000000E+000	0.00223769
2	0	0	0	0	0	0	188.9	-0.770002	-0.770409	-2.90246	-0.531401	-0.531401	11	-0.147611	0	-0.235721	1600	0.147611	0.000000000000000E+000	0.147611	0.0000000E+000	0.000000000000000E+000	0.00223608
2	0	0	0	0	0	0	189.7	-0.770002	-0.77039	-2.89943	-0.533722	-0.533722	11	-0.148256	0	-0.121168	1600	0.148256	0.000000000000000E+000	0.148256	0.0000000E+000	0.000000000000000E+000	0.00223369
2	0	0	0	0	0	0	190.5	-0.770002	-0.770371	-2.90043	-0.536042	-0.536042	11	-0.1489	0	-0.254813	1600	0.1489	0.000000000000000E+000	0.1489	0.0000000E+000	0.000000000000000E+000	0.0022344
2	0	0	0	0	0	0	191.3	-0.770002	-0.770543	-2.8972	-0.53836	-0.53836	11	-0.149544	0	-0.178445	1600	0.149544	0.000000000000000E+000	0.149544	0.0000000E+000	0.000000000000000E+000	0.00223241
2	0	0	0	0	0	0	192.1	-0.770002	-0.770218	-2.89568	-0.540677	-0.540677	11	-0.150188	0	-0.197537	1600	0.150188	0.000000000000000E+000	0.150188	0.0000000E+000	0.000000000000000E+000	0.00223031
2	0	0	0	0	0	0	192.9	-0.770002	-0.770314	-2.89628	-0.542993	-0.542993	11	-0.150832	0	-0.273906	1600	0.150832	0.000000000000000E+000	0.150832	0.0000000E+000	0.000000000000000E+000	0.00223105
2	0	0	0	0	0	0	193.7	-0.770002	-0.770256	-2.89404	-0.545309	-0.545309	11	-0.151475	0	-0.159353	1600	0.151475	0.000000000000000E+000	0.151475	0.0000000E+000	0.000000000000000E+000	0.00222915
2	0	0	0	0	0	0	194.5	-0.770002	-0.770409	-2.89098	-0.547623	-0.547623	11	-0.152117	0	-0.178445	1600	0.152117	0.000000000000000E+000	0.152117	0.0000000E+000	0.000000000000000E+000	0.00222724
2	0	0	0	0	0	0	195.3	-0.770002	-0.770352	-2.89234	-0.549936	-0.549936	11	-0.15276	0	-0.273906	1600	0.15276	0.000000000000000E+000	0.15276	0.0000000E+000	0.000000000000000E+000	0.00222812
2	0	0	0	0	0	0	196.1	-0.770002	-0.770409	-2.89002	-0.552248	-0.552248	11	-0.153402	0	-0.0638917	1600	0.153402	0.000000000000000E+000	0.153402	0.0000000E+000	0.000000000000000E+000	0.0022265
2	0	0	0	0	0	0	196.9	-0.770002	-0.770314	-2.88612	-0.55456	-0.55456	11	-0.154044	0	-0.0638917	1600	0.154044	0.000000000000000E+000	0.154044	0.0000000E+000	0.000000000000000E+000	0.00222322
2	0	0	0	0	0	0	197.268	-0.770002	-0.770371	-2.88438	-0.555623	-0.555623	11	-0.15434	0	-0.197537	1600	0.15434	0.000000000000000E+000	0.15434	INF	0.000000000000000E+000	0.00222204