File: ZnPVAECH_08 03-10-22-ZnPVA ECH K-L 100 to 1600 rpm at -0_8V vs RHE RDE2_C05(1).mpt
EC-Lab ASCII FILE
Nb header lines : 81

Chronoamperometry / Chronocoulometry

Run on channel : 5 (SN 6729)
User :
CE vs. WE compliance from -10 V to 10 V
Electrode connection : standard
Ewe ctrl range : min = -10.00 V, max = 10.00 V
Safety Limits :
	Do not start on E overload
Acquisition started on : 03/10/2022 14:52:03.616
Technique started on : 03/10/2022 14:52:03.716
Loaded Setting File :  NONE
Saved on :
	File : 03-10-22-GC ECH K-L 100 to 1600 rpm at -0_8V vs RHE RDE2_C05.mpr
	Directory : G:\Mindy\Koutecky Levich\Zn PVA\ECH\03-10-22\
	Host : 35.9.136.176
Device : VSP (SN 0012)
Address : 35.9.137.65
EC-Lab for windows v11.36 (software)
Internet server v11.36 (firmware)
Command interpretor v11.36 (firmware)
Electrode material : Au/Pd
Initial state :
Electrolyte : NaCl (0.2M)
Comments : Fe(CN)63-/Fe(CN)64- 5.10-3 M
Reference electrode : SCE Saturated Calomel Electrode (0.241 V)
Electrode surface area : 0.196 cm²
Characteristic mass : 0.001 g
Equivalent Weight : 0.000 g/eq.
Density : 0.000 g/cm3
Record Analogic IN 1
Cycle Definition : Charge/Discharge alternance
External device configuration :
   device type : RDE
   device name : BluRev RDE
   Analog OUT :
      mode : E/V
      unit : speed/rpm
      max : 10000.000 at 10.000 V
      min : 0.000 at 0.000 V
      current : 1600.000
   Analog IN 1 :
      unit : speed/rpm
      max : 10000.000 at 10.000 V
      min : 0.000 at 0.000 V
Ei (V)              -1.000
vs.                 Ref
ti (h:m:s)          0:30:0.0000
Imax                pass
unit Imax           mA
Imin                pass
unit Imin           mA
dQM                 0.000
unit dQM            mA.h
record              <I>
dI                  5.000
unit dI             µA
dQ                  0.000
unit dQ             mA.h
dt (s)              0.1000
dta (s)             0.1000
E range min (V)     -10.000
E range max (V)     10.000
I Range             Auto
I Range min         Unset
I Range max         Unset
I Range init        Unset
Bandwidth           5
goto Ns'            0
nc cycles           0

Modify on : 03/10/2022 14:52
Ei (V)              -0.850

Modify on : 03/10/2022 14:52
Ei (V)              -0.800

mode	ox/red	error	control changes	Ns changes	counter inc.	Ns	time/s	control/V	Ewe/V	<I>/mA	dQ/C	(Q-Qo)/C	I Range	Q charge/discharge/mA.h	half cycle	Analog IN 1/V	Analog OUT/V	Q discharge/mA.h	Q charge/mA.h	Capacity/mA.h	Efficiency/%	cycle number	P/W
2	0	0	1	0	0	0	0.1	-1.00001	-1.0001	-10.283	-0.000167588	-0.000167588	11	-4.65523e-05	0	-0.292998	1600	4.65523e-05	0.000000000000000E+000	4.65523e-05	0.0000000E+000	0.000000000000000E+000	0.0102839
2	0	0	1	0	0	0	0.9	-1.00001	-1.00038	-9.60393	-0.00788375	-0.00788375	11	-0.00218993	0	-0.273906	1600	0.00218993	0.000000000000000E+000	0.00218993	0.0000000E+000	0.000000000000000E+000	0.0096076
2	0	0	1	0	0	0	1.7	-1.00001	-1.00044	-9.61653	-0.0155742	-0.0155742	11	-0.00432618	0	-0.121168	1600	0.00432618	0.000000000000000E+000	0.00432618	0.0000000E+000	0.000000000000000E+000	0.00962076
2	0	0	1	0	0	0	2.5	-1.00001	-1.00017	-9.61313	-0.0232647	-0.0232647	11	-0.00646242	0	-0.14026	1600	0.00646242	0.000000000000000E+000	0.00646242	0.0000000E+000	0.000000000000000E+000	0.00961479
2	0	0	1	0	0	0	3.3	-1.00001	-1.00027	-9.60384	-0.0309471	-0.0309471	11	-0.0085964	0	-0.178445	1600	0.0085964	0.000000000000000E+000	0.0085964	0.0000000E+000	0.000000000000000E+000	0.00960642
2	0	0	1	0	0	0	4.1	-1.00001	-1.00031	-9.60991	-0.03863	-0.03863	11	-0.0107306	0	-0.178445	1600	0.0107306	0.000000000000000E+000	0.0107306	0.0000000E+000	0.000000000000000E+000	0.00961286
2	0	0	1	0	0	0	4.9	-1.00001	-1.00034	-9.59202	-0.0463056	-0.0463056	11	-0.0128627	0	-0.0829839	1600	0.0128627	0.000000000000000E+000	0.0128627	0.0000000E+000	0.000000000000000E+000	0.00959532
2	0	0	1	0	0	0	5.7	-1.00001	-1.00034	-9.58994	-0.0539785	-0.0539785	11	-0.014994	0	-0.121168	1600	0.014994	0.000000000000000E+000	0.014994	0.0000000E+000	0.000000000000000E+000	0.00959324
2	0	0	1	0	0	0	6.5	-1.00001	-1.00029	-9.58574	-0.0616488	-0.0616488	11	-0.0171247	0	-0.292998	1600	0.0171247	0.000000000000000E+000	0.0171247	0.0000000E+000	0.000000000000000E+000	0.0095885
2	0	0	1	0	0	0	7.3	-1.00001	-1.00017	-9.58155	-0.0693177	-0.0693177	11	-0.0192549	0	-0.216629	1600	0.0192549	0.000000000000000E+000	0.0192549	0.0000000E+000	0.000000000000000E+000	0.0095832
2	0	0	1	0	0	0	8.1	-1.00001	-1.00036	-9.58197	-0.0769849	-0.0769849	11	-0.0213847	0	-0.235721	1600	0.0213847	0.000000000000000E+000	0.0213847	0.0000000E+000	0.000000000000000E+000	0.00958545
2	0	0	1	0	0	0	8.9	-1.00001	-1.00033	-9.57727	-0.0846462	-0.0846462	11	-0.0235128	0	-0.216629	1600	0.0235128	0.000000000000000E+000	0.0235128	0.0000000E+000	0.000000000000000E+000	0.00958039
2	0	0	1	0	0	0	9.7	-1.00001	-1.00013	-9.56489	-0.0923029	-0.0923029	11	-0.0256397	0	-0.178445	1600	0.0256397	0.000000000000000E+000	0.0256397	0.0000000E+000	0.000000000000000E+000	0.00956618
2	0	0	1	0	0	0	10.5	-1.00001	-1.00031	-9.56999	-0.0999591	-0.0999591	11	-0.0277664	0	-0.0829839	1600	0.0277664	0.000000000000000E+000	0.0277664	0.0000000E+000	0.000000000000000E+000	0.00957293
2	0	0	1	0	0	0	11.3	-1.00001	-1.00078	-9.57231	-0.107614	-0.107614	11	-0.0298928	0	-0.197537	1600	0.0298928	0.000000000000000E+000	0.0298928	0.0000000E+000	0.000000000000000E+000	0.00957981
2	0	0	1	0	0	0	12.1	-1.00001	-1.00054	-9.55573	-0.115265	-0.115265	11	-0.0320179	0	-0.216629	1600	0.0320179	0.000000000000000E+000	0.0320179	0.0000000E+000	0.000000000000000E+000	0.00956085
2	0	0	1	0	0	0	12.9	-1.00001	-1.00023	-9.56024	-0.122914	-0.122914	11	-0.0341428	0	-0.102076	1600	0.0341428	0.000000000000000E+000	0.0341428	0.0000000E+000	0.000000000000000E+000	0.00956244
2	0	0	1	0	0	0	13.7	-1.00001	-1.00034	-9.57058	-0.130564	-0.130564	11	-0.0362677	0	-0.102076	1600	0.0362677	0.000000000000000E+000	0.0362677	0.0000000E+000	0.000000000000000E+000	0.00957388
2	0	0	1	0	0	0	14.5	-1.00001	-1.00025	-9.56499	-0.138213	-0.138213	11	-0.0383925	0	-0.178445	1600	0.0383925	0.000000000000000E+000	0.0383925	0.0000000E+000	0.000000000000000E+000	0.00956738
2	0	0	1	0	0	0	15.3	-1.00001	-1.00048	-9.5589	-0.145863	-0.145863	11	-0.0405174	0	-0.254813	1600	0.0405174	0.000000000000000E+000	0.0405174	0.0000000E+000	0.000000000000000E+000	0.00956347
2	0	0	0	0	0	0	16.1	-0.850006	-0.850383	-5.0009	-0.152902	-0.152902	10	-0.0424729	0	-0.197537	1600	0.0424729	0.000000000000000E+000	0.0424729	0.0000000E+000	0.000000000000000E+000	0.00425268
2	0	0	0	0	0	0	16.9	-0.850006	-0.850402	-5.11373	-0.157	-0.157	10	-0.0436111	0	-0.121168	1600	0.0436111	0.000000000000000E+000	0.0436111	0.0000000E+000	0.000000000000000E+000	0.00434872
2	0	0	0	0	0	0	17.7	-0.850006	-0.850249	-5.09409	-0.161083	-0.161083	10	-0.0447452	0	-0.159353	1600	0.0447452	0.000000000000000E+000	0.0447452	0.0000000E+000	0.000000000000000E+000	0.00433124
2	0	0	0	0	0	0	18.5	-0.850006	-0.850364	-5.08105	-0.165152	-0.165152	10	-0.0458755	0	-0.235721	1600	0.0458755	0.000000000000000E+000	0.0458755	0.0000000E+000	0.000000000000000E+000	0.00432074
2	0	0	0	0	0	0	19.3	-0.850006	-0.850249	-5.07405	-0.169214	-0.169214	10	-0.047004	0	-0.273906	1600	0.047004	0.000000000000000E+000	0.047004	0.0000000E+000	0.000000000000000E+000	0.00431421
2	0	0	0	0	0	0	20.1	-0.850006	-0.850478	-5.06848	-0.17327	-0.17327	10	-0.0481307	0	-0.159353	1600	0.0481307	0.000000000000000E+000	0.0481307	0.0000000E+000	0.000000000000000E+000	0.00431063
2	0	0	0	0	0	0	20.9	-0.850006	-0.850383	-5.05817	-0.177319	-0.177319	10	-0.0492554	0	-0.216629	1600	0.0492554	0.000000000000000E+000	0.0492554	0.0000000E+000	0.000000000000000E+000	0.00430138
2	0	0	0	0	0	0	21.7	-0.850006	-0.850325	-5.04811	-0.181361	-0.181361	10	-0.0503782	0	-0.178445	1600	0.0503782	0.000000000000000E+000	0.0503782	0.0000000E+000	0.000000000000000E+000	0.00429254
2	0	0	0	0	0	0	22.5	-0.850006	-0.850497	-5.04863	-0.185399	-0.185399	10	-0.0514998	0	-0.273906	1600	0.0514998	0.000000000000000E+000	0.0514998	0.0000000E+000	0.000000000000000E+000	0.00429384
2	0	0	0	0	0	0	23.3	-0.850006	-0.850497	-5.03668	-0.189432	-0.189432	10	-0.0526201	0	-0.254813	1600	0.0526201	0.000000000000000E+000	0.0526201	0.0000000E+000	0.000000000000000E+000	0.00428368
2	0	0	0	0	0	0	24.1	-0.850006	-0.850268	-5.03839	-0.193464	-0.193464	10	-0.0537399	0	-0.121168	1600	0.0537399	0.000000000000000E+000	0.0537399	0.0000000E+000	0.000000000000000E+000	0.00428398
2	0	0	0	0	0	0	24.9	-0.850006	-0.850497	-5.03356	-0.19749	-0.19749	10	-0.0548584	0	-0.102076	1600	0.0548584	0.000000000000000E+000	0.0548584	0.0000000E+000	0.000000000000000E+000	0.00428103
2	0	0	0	0	0	0	25.7	-0.850006	-0.850287	-5.02321	-0.201512	-0.201512	10	-0.0559756	0	-0.216629	1600	0.0559756	0.000000000000000E+000	0.0559756	0.0000000E+000	0.000000000000000E+000	0.00427117
2	0	0	0	0	0	0	26.5	-0.850006	-0.850287	-5.01605	-0.205529	-0.205529	10	-0.0570914	0	-0.178445	1600	0.0570914	0.000000000000000E+000	0.0570914	0.0000000E+000	0.000000000000000E+000	0.00426508
2	0	0	0	0	0	0	27.3	-0.850006	-0.85023	-5.01347	-0.209542	-0.209542	10	-0.058206	0	-0.14026	1600	0.058206	0.000000000000000E+000	0.058206	0.0000000E+000	0.000000000000000E+000	0.0042626
2	0	0	0	0	0	0	28.1	-0.850006	-0.850192	-5.00793	-0.213551	-0.213551	10	-0.0593196	0	-0.273906	1600	0.0593196	0.000000000000000E+000	0.0593196	0.0000000E+000	0.000000000000000E+000	0.0042577
2	0	0	1	0	0	0	28.909	-0.800108	-0.800249	-3.4931	-0.217361	-0.217361	11	-0.0603782	0	-0.254813	1600	0.0603782	0.000000000000000E+000	0.0603782	0.0000000E+000	0.000000000000000E+000	0.00279535
2	0	0	1	0	0	0	29.709	-0.800108	-0.800345	-3.50939	-0.220173	-0.220173	11	-0.0611593	0	-0.178445	1600	0.0611593	0.000000000000000E+000	0.0611593	0.0000000E+000	0.000000000000000E+000	0.00280872
2	0	0	1	0	0	0	30.509	-0.800108	-0.800535	-3.49631	-0.222975	-0.222975	11	-0.0619376	0	-0.159353	1600	0.0619376	0.000000000000000E+000	0.0619376	0.0000000E+000	0.000000000000000E+000	0.00279892
2	0	0	1	0	0	0	31.309	-0.800108	-0.800364	-3.49117	-0.22577	-0.22577	11	-0.062714	0	-0.216629	1600	0.062714	0.000000000000000E+000	0.062714	0.0000000E+000	0.000000000000000E+000	0.0027942
2	0	0	1	0	0	0	32.109	-0.800108	-0.800574	-3.48185	-0.22856	-0.22856	11	-0.0634888	0	-0.197537	1600	0.0634888	0.000000000000000E+000	0.0634888	0.0000000E+000	0.000000000000000E+000	0.00278748
2	0	0	1	0	0	0	32.909	-0.800108	-0.800325	-3.47961	-0.231344	-0.231344	11	-0.0642623	0	-0.0829839	1600	0.0642623	0.000000000000000E+000	0.0642623	0.0000000E+000	0.000000000000000E+000	0.00278482
2	0	0	1	0	0	0	33.709	-0.800108	-0.800555	-3.47688	-0.234126	-0.234126	11	-0.065035	0	-0.31209	1600	0.065035	0.000000000000000E+000	0.065035	0.0000000E+000	0.000000000000000E+000	0.00278343
2	0	0	1	0	0	0	34.509	-0.800108	-0.800516	-3.47328	-0.236907	-0.236907	11	-0.0658075	0	-0.159353	1600	0.0658075	0.000000000000000E+000	0.0658075	0.0000000E+000	0.000000000000000E+000	0.00278041
2	0	0	1	0	0	0	35.309	-0.800108	-0.80044	-3.47144	-0.239686	-0.239686	11	-0.0665794	0	-0.216629	1600	0.0665794	0.000000000000000E+000	0.0665794	0.0000000E+000	0.000000000000000E+000	0.00277868
2	0	0	1	0	0	0	36.109	-0.800108	-0.800516	-3.46852	-0.242461	-0.242461	11	-0.0673503	0	-0.216629	1600	0.0673503	0.000000000000000E+000	0.0673503	0.0000000E+000	0.000000000000000E+000	0.00277661
2	0	0	1	0	0	0	36.909	-0.800108	-0.800574	-3.46022	-0.245232	-0.245232	11	-0.06812	0	-0.254813	1600	0.06812	0.000000000000000E+000	0.06812	0.0000000E+000	0.000000000000000E+000	0.00277016
2	0	0	1	0	0	0	37.709	-0.800108	-0.800478	-3.45726	-0.247999	-0.247999	11	-0.0688887	0	-0.197537	1600	0.0688887	0.000000000000000E+000	0.0688887	0.0000000E+000	0.000000000000000E+000	0.00276746
2	0	0	1	0	0	0	38.509	-0.800108	-0.800478	-3.45429	-0.250763	-0.250763	11	-0.0696565	0	-0.273906	1600	0.0696565	0.000000000000000E+000	0.0696565	0.0000000E+000	0.000000000000000E+000	0.00276508
2	0	0	1	0	0	0	39.309	-0.800108	-0.80044	-3.44902	-0.253525	-0.253525	11	-0.0704235	0	-0.254813	1600	0.0704235	0.000000000000000E+000	0.0704235	0.0000000E+000	0.000000000000000E+000	0.00276074
2	0	0	1	0	0	0	40.109	-0.800108	-0.800421	-3.44783	-0.256283	-0.256283	11	-0.0711898	0	-0.159353	1600	0.0711898	0.000000000000000E+000	0.0711898	0.0000000E+000	0.000000000000000E+000	0.00275971
2	0	0	1	0	0	0	40.909	-0.800108	-0.800402	-3.26183	-0.259006	-0.259006	11	-0.071946	0	-0.178445	1600	0.071946	0.000000000000000E+000	0.071946	0.0000000E+000	0.000000000000000E+000	0.00261078
2	0	0	1	0	0	0	41.709	-0.800108	-0.800459	-3.26781	-0.261593	-0.261593	11	-0.0726647	0	-0.292998	1600	0.0726647	0.000000000000000E+000	0.0726647	0.0000000E+000	0.000000000000000E+000	0.00261575
2	0	0	1	0	0	0	42.509	-0.800108	-0.800478	-3.28626	-0.264217	-0.264217	11	-0.0733937	0	-0.178445	1600	0.0733937	0.000000000000000E+000	0.0733937	0.0000000E+000	0.000000000000000E+000	0.00263058
2	0	0	1	0	0	0	43.309	-0.800108	-0.800497	-3.28371	-0.266843	-0.266843	11	-0.074123	0	-0.216629	1600	0.074123	0.000000000000000E+000	0.074123	0.0000000E+000	0.000000000000000E+000	0.0026286
2	0	0	1	0	0	0	44.109	-0.800108	-0.800459	-3.27729	-0.269465	-0.269465	11	-0.0748514	0	-0.178445	1600	0.0748514	0.000000000000000E+000	0.0748514	0.0000000E+000	0.000000000000000E+000	0.00262333
2	0	0	1	0	0	0	44.909	-0.800108	-0.800383	-3.27464	-0.272085	-0.272085	11	-0.0755791	0	-0.121168	1600	0.0755791	0.000000000000000E+000	0.0755791	0.0000000E+000	0.000000000000000E+000	0.00262097
2	0	0	1	0	0	0	45.709	-0.800108	-0.800383	-3.27256	-0.274702	-0.274702	11	-0.0763061	0	-0.197537	1600	0.0763061	0.000000000000000E+000	0.0763061	0.0000000E+000	0.000000000000000E+000	0.0026193
2	0	0	1	0	0	0	46.509	-0.800108	-0.800383	-3.26501	-0.277317	-0.277317	11	-0.0770325	0	-0.273906	1600	0.0770325	0.000000000000000E+000	0.0770325	0.0000000E+000	0.000000000000000E+000	0.00261326
2	0	0	1	0	0	0	47.309	-0.800108	-0.800574	-3.26149	-0.279929	-0.279929	11	-0.0777581	0	-0.14026	1600	0.0777581	0.000000000000000E+000	0.0777581	0.0000000E+000	0.000000000000000E+000	0.00261106
2	0	0	1	0	0	0	48.109	-0.800108	-0.800268	-3.2598	-0.282539	-0.282539	11	-0.078483	0	-0.216629	1600	0.078483	0.000000000000000E+000	0.078483	0.0000000E+000	0.000000000000000E+000	0.00260871
2	0	0	1	0	0	0	48.909	-0.800108	-0.800421	-3.25626	-0.285146	-0.285146	11	-0.0792073	0	-0.178445	1600	0.0792073	0.000000000000000E+000	0.0792073	0.0000000E+000	0.000000000000000E+000	0.00260638
2	0	0	1	0	0	0	49.709	-0.800108	-0.80044	-3.2537	-0.28775	-0.28775	11	-0.0799306	0	-0.121168	1600	0.0799306	0.000000000000000E+000	0.0799306	0.0000000E+000	0.000000000000000E+000	0.00260439
2	0	0	1	0	0	0	50.509	-0.800108	-0.800325	-3.24561	-0.290351	-0.290351	11	-0.080653	0	-0.14026	1600	0.080653	0.000000000000000E+000	0.080653	0.0000000E+000	0.000000000000000E+000	0.00259754
2	0	0	1	0	0	0	51.309	-0.800108	-0.800402	-3.24178	-0.292948	-0.292948	11	-0.0813743	0	-0.197537	1600	0.0813743	0.000000000000000E+000	0.0813743	0.0000000E+000	0.000000000000000E+000	0.00259473
2	0	0	1	0	0	0	52.109	-0.800108	-0.80044	-3.24137	-0.295543	-0.295543	11	-0.0820952	0	-0.254813	1600	0.0820952	0.000000000000000E+000	0.0820952	0.0000000E+000	0.000000000000000E+000	0.00259452
2	0	0	1	0	0	0	52.909	-0.800108	-0.800516	-3.23811	-0.298136	-0.298136	11	-0.0828156	0	-0.235721	1600	0.0828156	0.000000000000000E+000	0.0828156	0.0000000E+000	0.000000000000000E+000	0.00259216
2	0	0	1	0	0	0	53.709	-0.800108	-0.800631	-3.21672	-0.300724	-0.300724	11	-0.0835345	0	-0.178445	1600	0.0835345	0.000000000000000E+000	0.0835345	0.0000000E+000	0.000000000000000E+000	0.00257541
2	0	0	1	0	0	0	54.509	-0.800108	-0.800402	-3.10853	-0.303242	-0.303242	11	-0.0842339	0	-0.178445	1600	0.0842339	0.000000000000000E+000	0.0842339	0.0000000E+000	0.000000000000000E+000	0.00248807
2	0	0	1	0	0	0	55.309	-0.800108	-0.800478	-3.10943	-0.305728	-0.305728	11	-0.0849245	0	-0.273906	1600	0.0849245	0.000000000000000E+000	0.0849245	0.0000000E+000	0.000000000000000E+000	0.00248903
2	0	0	1	0	0	0	56.109	-0.800108	-0.800325	-3.1075	-0.308215	-0.308215	11	-0.0856153	0	-0.178445	1600	0.0856153	0.000000000000000E+000	0.0856153	0.0000000E+000	0.000000000000000E+000	0.00248701
2	0	0	1	0	0	0	56.909	-0.800108	-0.800364	-3.10678	-0.310701	-0.310701	11	-0.0863058	0	-0.197537	1600	0.0863058	0.000000000000000E+000	0.0863058	0.0000000E+000	0.000000000000000E+000	0.00248656
2	0	0	1	0	0	0	57.709	-0.800108	-0.80044	-3.10232	-0.313184	-0.313184	11	-0.0869957	0	-0.178445	1600	0.0869957	0.000000000000000E+000	0.0869957	0.0000000E+000	0.000000000000000E+000	0.00248322
2	0	0	1	0	0	0	58.509	-0.800108	-0.800555	-3.10046	-0.315666	-0.315666	11	-0.087685	0	-0.159353	1600	0.087685	0.000000000000000E+000	0.087685	0.0000000E+000	0.000000000000000E+000	0.00248209
2	0	0	1	0	0	0	59.309	-0.800108	-0.800555	-3.09962	-0.318146	-0.318146	11	-0.0883739	0	-0.273906	1600	0.0883739	0.000000000000000E+000	0.0883739	0.0000000E+000	0.000000000000000E+000	0.00248141
2	0	0	1	0	0	0	60.109	-0.800108	-0.80044	-3.09504	-0.320625	-0.320625	11	-0.0890625	0	-0.216629	1600	0.0890625	0.000000000000000E+000	0.0890625	0.0000000E+000	0.000000000000000E+000	0.00247739
2	0	0	1	0	0	0	60.909	-0.800108	-0.800364	-3.09364	-0.323101	-0.323101	11	-0.0897504	0	-0.235721	1600	0.0897504	0.000000000000000E+000	0.0897504	0.0000000E+000	0.000000000000000E+000	0.00247604
2	0	0	1	0	0	0	61.709	-0.800108	-0.800497	-3.09499	-0.325577	-0.325577	11	-0.090438	0	-0.254813	1600	0.090438	0.000000000000000E+000	0.090438	0.0000000E+000	0.000000000000000E+000	0.00247753
2	0	0	1	0	0	0	62.509	-0.800108	-0.800325	-3.08915	-0.328051	-0.328051	11	-0.0911252	0	-0.216629	1600	0.0911252	0.000000000000000E+000	0.0911252	0.0000000E+000	0.000000000000000E+000	0.00247233
2	0	0	1	0	0	0	63.309	-0.800108	-0.800306	-3.09005	-0.330523	-0.330523	11	-0.0918119	0	-0.254813	1600	0.0918119	0.000000000000000E+000	0.0918119	0.0000000E+000	0.000000000000000E+000	0.00247298
2	0	0	1	0	0	0	64.109	-0.800108	-0.800402	-3.08693	-0.332994	-0.332994	11	-0.0924982	0	-0.178445	1600	0.0924982	0.000000000000000E+000	0.0924982	0.0000000E+000	0.000000000000000E+000	0.00247079
2	0	0	1	0	0	0	64.909	-0.800108	-0.800478	-3.07663	-0.335462	-0.335462	11	-0.0931838	0	-0.121168	1600	0.0931838	0.000000000000000E+000	0.0931838	0.0000000E+000	0.000000000000000E+000	0.00246278
2	0	0	1	0	0	0	65.709	-0.800108	-0.800383	-2.91582	-0.337854	-0.337854	11	-0.0938483	0	-0.235721	1600	0.0938483	0.000000000000000E+000	0.0938483	0.0000000E+000	0.000000000000000E+000	0.00233377
2	0	0	1	0	0	0	66.509	-0.800108	-0.800325	-2.82963	-0.340135	-0.340135	11	-0.094482	0	-0.178445	1600	0.094482	0.000000000000000E+000	0.094482	0.0000000E+000	0.000000000000000E+000	0.00226462
2	0	0	1	0	0	0	67.309	-0.800108	-0.800497	-2.83975	-0.342403	-0.342403	11	-0.0951118	0	-0.254813	1600	0.0951118	0.000000000000000E+000	0.0951118	0.0000000E+000	0.000000000000000E+000	0.00227321
2	0	0	1	0	0	0	68.109	-0.800108	-0.80044	-2.82399	-0.344667	-0.344667	11	-0.0957407	0	-0.31209	1600	0.0957407	0.000000000000000E+000	0.0957407	0.0000000E+000	0.000000000000000E+000	0.00226043
2	0	0	1	0	0	0	68.909	-0.800108	-0.800593	-2.81597	-0.346924	-0.346924	11	-0.0963677	0	-0.235721	1600	0.0963677	0.000000000000000E+000	0.0963677	0.0000000E+000	0.000000000000000E+000	0.00225444
2	0	0	1	0	0	0	69.709	-0.800108	-0.800383	-2.8221	-0.349179	-0.349179	11	-0.0969942	0	-0.159353	1600	0.0969942	0.000000000000000E+000	0.0969942	0.0000000E+000	0.000000000000000E+000	0.00225876
2	0	0	1	0	0	0	70.509	-0.800108	-0.80044	-2.80891	-0.351431	-0.351431	11	-0.0976198	0	-0.197537	1600	0.0976198	0.000000000000000E+000	0.0976198	0.0000000E+000	0.000000000000000E+000	0.00224836
2	0	0	1	0	0	0	71.309	-0.800108	-0.800497	-2.81335	-0.353683	-0.353683	11	-0.0982452	0	-0.197537	1600	0.0982452	0.000000000000000E+000	0.0982452	0.0000000E+000	0.000000000000000E+000	0.00225208
2	0	0	1	0	0	0	72.109	-0.800108	-0.800402	-2.80895	-0.355931	-0.355931	11	-0.0988697	0	-0.14026	1600	0.0988697	0.000000000000000E+000	0.0988697	0.0000000E+000	0.000000000000000E+000	0.00224829
2	0	0	1	0	0	0	72.909	-0.800108	-0.800364	-2.80623	-0.358179	-0.358179	11	-0.0994942	0	-0.292998	1600	0.0994942	0.000000000000000E+000	0.0994942	0.0000000E+000	0.000000000000000E+000	0.00224601
2	0	0	1	0	0	0	73.709	-0.800108	-0.800478	-2.81214	-0.360425	-0.360425	11	-0.100118	0	-0.159353	1600	0.100118	0.000000000000000E+000	0.100118	0.0000000E+000	0.000000000000000E+000	0.00225106
2	0	0	1	0	0	0	74.509	-0.800108	-0.800535	-2.80209	-0.36267	-0.36267	11	-0.100742	0	-0.216629	1600	0.100742	0.000000000000000E+000	0.100742	0.0000000E+000	0.000000000000000E+000	0.00224317
2	0	0	1	0	0	0	75.309	-0.800108	-0.800402	-2.8069	-0.364913	-0.364913	11	-0.101365	0	-0.292998	1600	0.101365	0.000000000000000E+000	0.101365	0.0000000E+000	0.000000000000000E+000	0.00224665
2	0	0	1	0	0	0	76.109	-0.800108	-0.800593	-2.80313	-0.367155	-0.367155	11	-0.101988	0	-0.14026	1600	0.101988	0.000000000000000E+000	0.101988	0.0000000E+000	0.000000000000000E+000	0.00224416
2	0	0	1	0	0	0	76.909	-0.800108	-0.800421	-2.79873	-0.369397	-0.369397	11	-0.10261	0	-0.14026	1600	0.10261	0.000000000000000E+000	0.10261	0.0000000E+000	0.000000000000000E+000	0.00224016
2	0	0	1	0	0	0	77.709	-0.800108	-0.800497	-2.81043	-0.37164	-0.37164	11	-0.103233	0	-0.216629	1600	0.103233	0.000000000000000E+000	0.103233	0.0000000E+000	0.000000000000000E+000	0.00224975
2	0	0	1	0	0	0	78.509	-0.800108	-0.800478	-2.79486	-0.373881	-0.373881	11	-0.103856	0	-0.254813	1600	0.103856	0.000000000000000E+000	0.103856	0.0000000E+000	0.000000000000000E+000	0.00223723
2	0	0	1	0	0	0	79.309	-0.800108	-0.800306	-2.80113	-0.376121	-0.376121	11	-0.104478	0	-0.121168	1600	0.104478	0.000000000000000E+000	0.104478	0.0000000E+000	0.000000000000000E+000	0.00224176
2	0	0	1	0	0	0	80.109	-0.800108	-0.800268	-2.79907	-0.378359	-0.378359	11	-0.1051	0	-0.254813	1600	0.1051	0.000000000000000E+000	0.1051	0.0000000E+000	0.000000000000000E+000	0.00224001
2	0	0	1	0	0	0	80.909	-0.800108	-0.800516	-2.78697	-0.380595	-0.380595	11	-0.105721	0	-0.14026	1600	0.105721	0.000000000000000E+000	0.105721	0.0000000E+000	0.000000000000000E+000	0.00223101
2	0	0	1	0	0	0	81.709	-0.800108	-0.800497	-2.649	-0.382761	-0.382761	11	-0.106323	0	-0.159353	1600	0.106323	0.000000000000000E+000	0.106323	0.0000000E+000	0.000000000000000E+000	0.00212052
2	0	0	1	0	0	0	82.509	-0.800108	-0.800402	-2.60543	-0.384859	-0.384859	11	-0.106905	0	-0.273906	1600	0.106905	0.000000000000000E+000	0.106905	0.0000000E+000	0.000000000000000E+000	0.00208539
2	0	0	1	0	0	0	83.309	-0.800108	-0.800516	-2.60021	-0.386941	-0.386941	11	-0.107484	0	-0.254813	1600	0.107484	0.000000000000000E+000	0.107484	0.0000000E+000	0.000000000000000E+000	0.00208151
2	0	0	1	0	0	0	84.109	-0.800108	-0.800421	-2.59746	-0.389019	-0.389019	11	-0.108061	0	-0.102076	1600	0.108061	0.000000000000000E+000	0.108061	0.0000000E+000	0.000000000000000E+000	0.00207906
2	0	0	1	0	0	0	84.909	-0.800108	-0.80044	-2.59935	-0.391096	-0.391096	11	-0.108638	0	-0.178445	1600	0.108638	0.000000000000000E+000	0.108638	0.0000000E+000	0.000000000000000E+000	0.00208062
2	0	0	1	0	0	0	85.709	-0.800108	-0.800535	-2.59573	-0.393171	-0.393171	11	-0.109214	0	-0.216629	1600	0.109214	0.000000000000000E+000	0.109214	0.0000000E+000	0.000000000000000E+000	0.00207797
2	0	0	1	0	0	0	86.509	-0.800108	-0.800402	-2.59428	-0.395243	-0.395243	11	-0.10979	0	-0.197537	1600	0.10979	0.000000000000000E+000	0.10979	0.0000000E+000	0.000000000000000E+000	0.00207647
2	0	0	1	0	0	0	87.309	-0.800108	-0.800383	-2.59156	-0.397314	-0.397314	11	-0.110365	0	-0.235721	1600	0.110365	0.000000000000000E+000	0.110365	0.0000000E+000	0.000000000000000E+000	0.00207424
2	0	0	1	0	0	0	88.109	-0.800108	-0.800478	-2.58632	-0.399383	-0.399383	11	-0.11094	0	-0.14026	1600	0.11094	0.000000000000000E+000	0.11094	0.0000000E+000	0.000000000000000E+000	0.00207029
2	0	0	1	0	0	0	88.909	-0.800108	-0.800364	-2.5803	-0.401451	-0.401451	11	-0.111514	0	-0.121168	1600	0.111514	0.000000000000000E+000	0.111514	0.0000000E+000	0.000000000000000E+000	0.00206518
2	0	0	1	0	0	0	89.709	-0.800108	-0.800516	-2.57979	-0.403519	-0.403519	11	-0.112089	0	-0.235721	1600	0.112089	0.000000000000000E+000	0.112089	0.0000000E+000	0.000000000000000E+000	0.00206516
2	0	0	1	0	0	0	90.509	-0.800108	-0.80044	-2.5809	-0.405587	-0.405587	11	-0.112663	0	-0.159353	1600	0.112663	0.000000000000000E+000	0.112663	0.0000000E+000	0.000000000000000E+000	0.00206586
2	0	0	1	0	0	0	91.309	-0.800108	-0.800421	-2.578	-0.407652	-0.407652	11	-0.113237	0	-0.273906	1600	0.113237	0.000000000000000E+000	0.113237	0.0000000E+000	0.000000000000000E+000	0.00206349
2	0	0	1	0	0	0	92.109	-0.800108	-0.800516	-2.57812	-0.409717	-0.409717	11	-0.11381	0	-0.159353	1600	0.11381	0.000000000000000E+000	0.11381	0.0000000E+000	0.000000000000000E+000	0.00206383
2	0	0	1	0	0	0	92.909	-0.800108	-0.800421	-2.57834	-0.411781	-0.411781	11	-0.114384	0	-0.121168	1600	0.114384	0.000000000000000E+000	0.114384	0.0000000E+000	0.000000000000000E+000	0.00206375
2	0	0	1	0	0	0	93.709	-0.800108	-0.80044	-2.57905	-0.413843	-0.413843	11	-0.114957	0	-0.254813	1600	0.114957	0.000000000000000E+000	0.114957	0.0000000E+000	0.000000000000000E+000	0.00206437
2	0	0	1	0	0	0	94.509	-0.800108	-0.800383	-2.58115	-0.415906	-0.415906	11	-0.115529	0	-0.159353	1600	0.115529	0.000000000000000E+000	0.115529	0.0000000E+000	0.000000000000000E+000	0.00206591
2	0	0	1	0	0	0	95.309	-0.800108	-0.800459	-2.4373	-0.417913	-0.417913	11	-0.116087	0	-0.14026	1600	0.116087	0.000000000000000E+000	0.116087	0.0000000E+000	0.000000000000000E+000	0.00195096
2	0	0	1	0	0	0	96.109	-0.800108	-0.800402	-2.35468	-0.419819	-0.419819	11	-0.116616	0	-0.235721	1600	0.116616	0.000000000000000E+000	0.116616	0.0000000E+000	0.000000000000000E+000	0.00188469
2	0	0	1	0	0	0	96.909	-0.800108	-0.800325	-2.33228	-0.421694	-0.421694	11	-0.117137	0	-0.216629	1600	0.117137	0.000000000000000E+000	0.117137	0.0000000E+000	0.000000000000000E+000	0.00186658
2	0	0	1	0	0	0	97.709	-0.800108	-0.800383	-2.32414	-0.423558	-0.423558	11	-0.117655	0	-0.178445	1600	0.117655	0.000000000000000E+000	0.117655	0.0000000E+000	0.000000000000000E+000	0.0018602
2	0	0	1	0	0	0	98.509	-0.800108	-0.800459	-2.32399	-0.425418	-0.425418	11	-0.118172	0	-0.197537	1600	0.118172	0.000000000000000E+000	0.118172	0.0000000E+000	0.000000000000000E+000	0.00186026
2	0	0	1	0	0	0	99.309	-0.800108	-0.800478	-2.32678	-0.427276	-0.427276	11	-0.118688	0	-0.178445	1600	0.118688	0.000000000000000E+000	0.118688	0.0000000E+000	0.000000000000000E+000	0.00186253
2	0	0	1	0	0	0	100.109	-0.800108	-0.800421	-2.32513	-0.429133	-0.429133	11	-0.119204	0	-0.216629	1600	0.119204	0.000000000000000E+000	0.119204	0.0000000E+000	0.000000000000000E+000	0.00186109
2	0	0	1	0	0	0	100.909	-0.800108	-0.80044	-2.31743	-0.43099	-0.43099	11	-0.119719	0	-0.159353	1600	0.119719	0.000000000000000E+000	0.119719	0.0000000E+000	0.000000000000000E+000	0.00185497
2	0	0	1	0	0	0	101.709	-0.800108	-0.800459	-2.31484	-0.432846	-0.432846	11	-0.120235	0	-0.216629	1600	0.120235	0.000000000000000E+000	0.120235	0.0000000E+000	0.000000000000000E+000	0.00185293
2	0	0	1	0	0	0	102.509	-0.800108	-0.800478	-2.31268	-0.4347	-0.4347	11	-0.12075	0	-0.235721	1600	0.12075	0.000000000000000E+000	0.12075	0.0000000E+000	0.000000000000000E+000	0.00185125
2	0	0	1	0	0	0	103.309	-0.800108	-0.800459	-2.31614	-0.436552	-0.436552	11	-0.121265	0	-0.159353	1600	0.121265	0.000000000000000E+000	0.121265	0.0000000E+000	0.000000000000000E+000	0.00185397
2	0	0	1	0	0	0	104.109	-0.800108	-0.800325	-2.31816	-0.438403	-0.438403	11	-0.121779	0	-0.178445	1600	0.121779	0.000000000000000E+000	0.121779	0.0000000E+000	0.000000000000000E+000	0.00185529
2	0	0	1	0	0	0	104.909	-0.800108	-0.800402	-2.31638	-0.440253	-0.440253	11	-0.122293	0	-0.273906	1600	0.122293	0.000000000000000E+000	0.122293	0.0000000E+000	0.000000000000000E+000	0.00185403
2	0	0	1	0	0	0	105.709	-0.800108	-0.800383	-2.30827	-0.442102	-0.442102	11	-0.122806	0	-0.235721	1600	0.122806	0.000000000000000E+000	0.122806	0.0000000E+000	0.000000000000000E+000	0.0018475
2	0	0	1	0	0	0	106.509	-0.800108	-0.800268	-2.30542	-0.443951	-0.443951	11	-0.12332	0	-0.14026	1600	0.12332	0.000000000000000E+000	0.12332	0.0000000E+000	0.000000000000000E+000	0.00184496
2	0	0	1	0	0	0	107.309	-0.800108	-0.800459	-2.29704	-0.445795	-0.445795	11	-0.123832	0	-0.31209	1600	0.123832	0.000000000000000E+000	0.123832	0.0000000E+000	0.000000000000000E+000	0.00183869
2	0	0	1	0	0	0	108.109	-0.800108	-0.800364	-2.21702	-0.447599	-0.447599	11	-0.124333	0	-0.159353	1600	0.124333	0.000000000000000E+000	0.124333	0.0000000E+000	0.000000000000000E+000	0.00177443
2	0	0	1	0	0	0	108.909	-0.800108	-0.800421	-2.16081	-0.449345	-0.449345	11	-0.124818	0	-0.235721	1600	0.124818	0.000000000000000E+000	0.124818	0.0000000E+000	0.000000000000000E+000	0.00172956
2	0	0	1	0	0	0	109.709	-0.800108	-0.800268	-2.13005	-0.451056	-0.451056	11	-0.125293	0	-0.14026	1600	0.125293	0.000000000000000E+000	0.125293	0.0000000E+000	0.000000000000000E+000	0.00170462
2	0	0	1	0	0	0	110.509	-0.800108	-0.800364	-2.11162	-0.452752	-0.452752	11	-0.125764	0	-0.178445	1600	0.125764	0.000000000000000E+000	0.125764	0.0000000E+000	0.000000000000000E+000	0.00169007
2	0	0	1	0	0	0	111.309	-0.800108	-0.800421	-2.10996	-0.454441	-0.454441	11	-0.126234	0	-0.197537	1600	0.126234	0.000000000000000E+000	0.126234	0.0000000E+000	0.000000000000000E+000	0.00168886
2	0	0	1	0	0	0	112.109	-0.800108	-0.800478	-2.11057	-0.456129	-0.456129	11	-0.126702	0	-0.197537	1600	0.126702	0.000000000000000E+000	0.126702	0.0000000E+000	0.000000000000000E+000	0.00168947
2	0	0	1	0	0	0	112.909	-0.800108	-0.800402	-2.09875	-0.457813	-0.457813	11	-0.12717	0	-0.216629	1600	0.12717	0.000000000000000E+000	0.12717	0.0000000E+000	0.000000000000000E+000	0.00167984
2	0	0	1	0	0	0	113.709	-0.800108	-0.80044	-2.09707	-0.459495	-0.459495	11	-0.127638	0	-0.121168	1600	0.127638	0.000000000000000E+000	0.127638	0.0000000E+000	0.000000000000000E+000	0.00167858
2	0	0	1	0	0	0	114.509	-0.800108	-0.800497	-2.10698	-0.461178	-0.461178	11	-0.128105	0	-0.14026	1600	0.128105	0.000000000000000E+000	0.128105	0.0000000E+000	0.000000000000000E+000	0.00168663
2	0	0	1	0	0	0	115.309	-0.800108	-0.80044	-2.09795	-0.462858	-0.462858	11	-0.128572	0	-0.235721	1600	0.128572	0.000000000000000E+000	0.128572	0.0000000E+000	0.000000000000000E+000	0.00167928
2	0	0	1	0	0	0	116.109	-0.800108	-0.80044	-2.09643	-0.464537	-0.464537	11	-0.129038	0	-0.178445	1600	0.129038	0.000000000000000E+000	0.129038	0.0000000E+000	0.000000000000000E+000	0.00167807
2	0	0	1	0	0	0	116.909	-0.800108	-0.800421	-2.09873	-0.466214	-0.466214	11	-0.129504	0	-0.235721	1600	0.129504	0.000000000000000E+000	0.129504	0.0000000E+000	0.000000000000000E+000	0.00167987
2	0	0	1	0	0	0	117.709	-0.800108	-0.800345	-2.09369	-0.467888	-0.467888	11	-0.129969	0	-0.197537	1600	0.129969	0.000000000000000E+000	0.129969	0.0000000E+000	0.000000000000000E+000	0.00167567
2	0	0	1	0	0	0	118.509	-0.800108	-0.800535	-2.08563	-0.469558	-0.469558	11	-0.130433	0	-0.14026	1600	0.130433	0.000000000000000E+000	0.130433	0.0000000E+000	0.000000000000000E+000	0.00166962
2	0	0	1	0	0	0	119.309	-0.800108	-0.800364	-2.08883	-0.471229	-0.471229	11	-0.130897	0	-0.254813	1600	0.130897	0.000000000000000E+000	0.130897	0.0000000E+000	0.000000000000000E+000	0.00167182
2	0	0	1	0	0	0	120.109	-0.800108	-0.800574	-2.09227	-0.4729	-0.4729	11	-0.131361	0	-0.197537	1600	0.131361	0.000000000000000E+000	0.131361	0.0000000E+000	0.000000000000000E+000	0.00167502
2	0	0	1	0	0	0	120.909	-0.800108	-0.800421	-2.08305	-0.474569	-0.474569	11	-0.131825	0	-0.14026	1600	0.131825	0.000000000000000E+000	0.131825	0.0000000E+000	0.000000000000000E+000	0.00166732
2	0	0	1	0	0	0	121.709	-0.800108	-0.80044	-2.1148	-0.476243	-0.476243	11	-0.13229	0	-0.197537	1600	0.13229	0.000000000000000E+000	0.13229	0.0000000E+000	0.000000000000000E+000	0.00169277
2	0	0	1	0	0	0	122.509	-0.800108	-0.800325	-2.19985	-0.477972	-0.477972	11	-0.13277	0	-0.159353	1600	0.13277	0.000000000000000E+000	0.13277	0.0000000E+000	0.000000000000000E+000	0.0017606
2	0	0	1	0	0	0	123.309	-0.800108	-0.800478	-2.25206	-0.479761	-0.479761	11	-0.133267	0	-0.14026	1600	0.133267	0.000000000000000E+000	0.133267	0.0000000E+000	0.000000000000000E+000	0.00180272
2	0	0	1	0	0	0	124.109	-0.800108	-0.800383	-2.26672	-0.481574	-0.481574	11	-0.133771	0	-0.235721	1600	0.133771	0.000000000000000E+000	0.133771	0.0000000E+000	0.000000000000000E+000	0.00181425
2	0	0	1	0	0	0	124.909	-0.800108	-0.800497	-2.27969	-0.483396	-0.483396	11	-0.134277	0	-0.159353	1600	0.134277	0.000000000000000E+000	0.134277	0.0000000E+000	0.000000000000000E+000	0.00182489
2	0	0	1	0	0	0	125.709	-0.800108	-0.800345	-2.2843	-0.485218	-0.485218	11	-0.134783	0	-0.235721	1600	0.134783	0.000000000000000E+000	0.134783	0.0000000E+000	0.000000000000000E+000	0.00182823
2	0	0	1	0	0	0	126.509	-0.800108	-0.800402	-2.28234	-0.48704	-0.48704	11	-0.135289	0	-0.197537	1600	0.135289	0.000000000000000E+000	0.135289	0.0000000E+000	0.000000000000000E+000	0.00182679
2	0	0	1	0	0	0	127.309	-0.800108	-0.800421	-2.2739	-0.488863	-0.488863	11	-0.135795	0	-0.121168	1600	0.135795	0.000000000000000E+000	0.135795	0.0000000E+000	0.000000000000000E+000	0.00182008
2	0	0	1	0	0	0	128.109	-0.800108	-0.800383	-2.27044	-0.490685	-0.490685	11	-0.136301	0	-0.254813	1600	0.136301	0.000000000000000E+000	0.136301	0.0000000E+000	0.000000000000000E+000	0.00181722
2	0	0	1	0	0	0	128.909	-0.800108	-0.800421	-2.27179	-0.492507	-0.492507	11	-0.136807	0	-0.178445	1600	0.136807	0.000000000000000E+000	0.136807	0.0000000E+000	0.000000000000000E+000	0.00181839
2	0	0	1	0	0	0	129.709	-0.800108	-0.800516	-2.27669	-0.494328	-0.494328	11	-0.137313	0	-0.197537	1600	0.137313	0.000000000000000E+000	0.137313	0.0000000E+000	0.000000000000000E+000	0.00182253
2	0	0	1	0	0	0	130.509	-0.800108	-0.800478	-2.27968	-0.496147	-0.496147	11	-0.137819	0	-0.159353	1600	0.137819	0.000000000000000E+000	0.137819	0.0000000E+000	0.000000000000000E+000	0.00182483
2	0	0	1	0	0	0	131.309	-0.800108	-0.800478	-2.27931	-0.497967	-0.497967	11	-0.138324	0	-0.216629	1600	0.138324	0.000000000000000E+000	0.138324	0.0000000E+000	0.000000000000000E+000	0.00182454
2	0	0	1	0	0	0	132.109	-0.800108	-0.800364	-2.26957	-0.499785	-0.499785	11	-0.138829	0	-0.14026	1600	0.138829	0.000000000000000E+000	0.138829	0.0000000E+000	0.000000000000000E+000	0.00181648
2	0	0	1	0	0	0	132.909	-0.800108	-0.800478	-2.26473	-0.501602	-0.501602	11	-0.139334	0	-0.197537	1600	0.139334	0.000000000000000E+000	0.139334	0.0000000E+000	0.000000000000000E+000	0.00181287
2	0	0	1	0	0	0	133.709	-0.800108	-0.800516	-2.26172	-0.503419	-0.503419	11	-0.139839	0	-0.159353	1600	0.139839	0.000000000000000E+000	0.139839	0.0000000E+000	0.000000000000000E+000	0.00181055
2	0	0	1	0	0	0	134.509	-0.800108	-0.800383	-2.4287	-0.505282	-0.505282	11	-0.140356	0	-0.273906	1600	0.140356	0.000000000000000E+000	0.140356	0.0000000E+000	0.000000000000000E+000	0.00194389
2	0	0	1	0	0	0	135.309	-0.800108	-0.800325	-2.50334	-0.507268	-0.507268	11	-0.140908	0	-0.254813	1600	0.140908	0.000000000000000E+000	0.140908	0.0000000E+000	0.000000000000000E+000	0.00200349
2	0	0	1	0	0	0	136.109	-0.800108	-0.80044	-2.51154	-0.509271	-0.509271	11	-0.141464	0	-0.121168	1600	0.141464	0.000000000000000E+000	0.141464	0.0000000E+000	0.000000000000000E+000	0.00201034
2	0	0	1	0	0	0	136.909	-0.800108	-0.800345	-2.51158	-0.511275	-0.511275	11	-0.142021	0	-0.31209	1600	0.142021	0.000000000000000E+000	0.142021	0.0000000E+000	0.000000000000000E+000	0.00201013
2	0	0	1	0	0	0	137.709	-0.800108	-0.800478	-2.50933	-0.513278	-0.513278	11	-0.142577	0	-0.178445	1600	0.142577	0.000000000000000E+000	0.142577	0.0000000E+000	0.000000000000000E+000	0.00200866
2	0	0	1	0	0	0	138.509	-0.800108	-0.80044	-2.50553	-0.51528	-0.51528	11	-0.143133	0	-0.14026	1600	0.143133	0.000000000000000E+000	0.143133	0.0000000E+000	0.000000000000000E+000	0.00200552
2	0	0	1	0	0	0	139.309	-0.800108	-0.800459	-2.50166	-0.517282	-0.517282	11	-0.143689	0	-0.14026	1600	0.143689	0.000000000000000E+000	0.143689	0.0000000E+000	0.000000000000000E+000	0.00200248
2	0	0	1	0	0	0	140.109	-0.800108	-0.800478	-2.49452	-0.519282	-0.519282	11	-0.144245	0	-0.31209	1600	0.144245	0.000000000000000E+000	0.144245	0.0000000E+000	0.000000000000000E+000	0.00199681
2	0	0	1	0	0	0	140.909	-0.800108	-0.800306	-2.48816	-0.52128	-0.52128	11	-0.1448	0	-0.292998	1600	0.1448	0.000000000000000E+000	0.1448	0.0000000E+000	0.000000000000000E+000	0.00199129
2	0	0	1	0	0	0	141.709	-0.800108	-0.800459	-2.4877	-0.523277	-0.523277	11	-0.145355	0	-0.216629	1600	0.145355	0.000000000000000E+000	0.145355	0.0000000E+000	0.000000000000000E+000	0.0019913
2	0	0	1	0	0	0	142.509	-0.800108	-0.800459	-2.49006	-0.525273	-0.525273	11	-0.145909	0	-0.14026	1600	0.145909	0.000000000000000E+000	0.145909	0.0000000E+000	0.000000000000000E+000	0.00199319
2	0	0	1	0	0	0	143.309	-0.800108	-0.80044	-2.49375	-0.52727	-0.52727	11	-0.146464	0	-0.216629	1600	0.146464	0.000000000000000E+000	0.146464	0.0000000E+000	0.000000000000000E+000	0.0019961
2	0	0	1	0	0	0	144.109	-0.800108	-0.800535	-2.4982	-0.529268	-0.529268	11	-0.147019	0	-0.159353	1600	0.147019	0.000000000000000E+000	0.147019	0.0000000E+000	0.000000000000000E+000	0.00199989
2	0	0	1	0	0	0	144.909	-0.800108	-0.800516	-2.59923	-0.53129	-0.53129	11	-0.147581	0	-0.159353	1600	0.147581	0.000000000000000E+000	0.147581	0.0000000E+000	0.000000000000000E+000	0.00208073
2	0	0	1	0	0	0	145.709	-0.800108	-0.800555	-2.67039	-0.533411	-0.533411	11	-0.14817	0	-0.235721	1600	0.14817	0.000000000000000E+000	0.14817	0.0000000E+000	0.000000000000000E+000	0.00213779
2	0	0	1	0	0	0	146.509	-0.800108	-0.80044	-2.6775	-0.535554	-0.535554	11	-0.148765	0	-0.31209	1600	0.148765	0.000000000000000E+000	0.148765	0.0000000E+000	0.000000000000000E+000	0.00214317
2	0	0	1	0	0	0	147.309	-0.800108	-0.800306	-2.68525	-0.537698	-0.537698	11	-0.149361	0	-0.197537	1600	0.149361	0.000000000000000E+000	0.149361	0.0000000E+000	0.000000000000000E+000	0.00214902
2	0	0	1	0	0	0	148.109	-0.800108	-0.800555	-2.67102	-0.539841	-0.539841	11	-0.149956	0	-0.102076	1600	0.149956	0.000000000000000E+000	0.149956	0.0000000E+000	0.000000000000000E+000	0.0021383
2	0	0	1	0	0	0	148.909	-0.800108	-0.800421	-2.68038	-0.541984	-0.541984	11	-0.150551	0	-0.235721	1600	0.150551	0.000000000000000E+000	0.150551	0.0000000E+000	0.000000000000000E+000	0.00214543
2	0	0	1	0	0	0	149.709	-0.800108	-0.800459	-2.67042	-0.544122	-0.544122	11	-0.151145	0	-0.216629	1600	0.151145	0.000000000000000E+000	0.151145	0.0000000E+000	0.000000000000000E+000	0.00213757
2	0	0	1	0	0	0	150.509	-0.800108	-0.800497	-2.67046	-0.546261	-0.546261	11	-0.151739	0	-0.216629	1600	0.151739	0.000000000000000E+000	0.151739	0.0000000E+000	0.000000000000000E+000	0.00213769
2	0	0	1	0	0	0	151.309	-0.800108	-0.800345	-2.67698	-0.548399	-0.548399	11	-0.152333	0	-0.197537	1600	0.152333	0.000000000000000E+000	0.152333	0.0000000E+000	0.000000000000000E+000	0.00214251
2	0	0	1	0	0	0	152.109	-0.800108	-0.800402	-2.66685	-0.550536	-0.550536	11	-0.152927	0	-0.159353	1600	0.152927	0.000000000000000E+000	0.152927	0.0000000E+000	0.000000000000000E+000	0.00213455
2	0	0	1	0	0	0	152.909	-0.800108	-0.80044	-2.67362	-0.552674	-0.552674	11	-0.15352	0	-0.159353	1600	0.15352	0.000000000000000E+000	0.15352	0.0000000E+000	0.000000000000000E+000	0.00214007
2	0	0	1	0	0	0	153.709	-0.800108	-0.800535	-2.66621	-0.554809	-0.554809	11	-0.154114	0	-0.159353	1600	0.154114	0.000000000000000E+000	0.154114	0.0000000E+000	0.000000000000000E+000	0.0021344
2	0	0	1	0	0	0	154.509	-0.800108	-0.800383	-2.66396	-0.556944	-0.556944	11	-0.154707	0	-0.235721	1600	0.154707	0.000000000000000E+000	0.154707	0.0000000E+000	0.000000000000000E+000	0.00213219
2	0	0	1	0	0	0	155.309	-0.800108	-0.800421	-2.67364	-0.559079	-0.559079	11	-0.1553	0	-0.159353	1600	0.1553	0.000000000000000E+000	0.1553	0.0000000E+000	0.000000000000000E+000	0.00214004
2	0	0	1	0	0	0	156.109	-0.800108	-0.800364	-2.86928	-0.561295	-0.561295	11	-0.155915	0	-0.14026	1600	0.155915	0.000000000000000E+000	0.155915	0.0000000E+000	0.000000000000000E+000	0.00229647
2	0	0	1	0	0	0	156.909	-0.800108	-0.800402	-2.90795	-0.563616	-0.563616	11	-0.15656	0	-0.254813	1600	0.15656	0.000000000000000E+000	0.15656	0.0000000E+000	0.000000000000000E+000	0.00232753
2	0	0	1	0	0	0	157.709	-0.800108	-0.800555	-2.89965	-0.565938	-0.565938	11	-0.157205	0	-0.292998	1600	0.157205	0.000000000000000E+000	0.157205	0.0000000E+000	0.000000000000000E+000	0.00232133
2	0	0	1	0	0	0	158.509	-0.800108	-0.800497	-2.8992	-0.568259	-0.568259	11	-0.15785	0	-0.254813	1600	0.15785	0.000000000000000E+000	0.15785	0.0000000E+000	0.000000000000000E+000	0.0023208
2	0	0	1	0	0	0	159.309	-0.800108	-0.800421	-2.90069	-0.570577	-0.570577	11	-0.158494	0	-0.235721	1600	0.158494	0.000000000000000E+000	0.158494	0.0000000E+000	0.000000000000000E+000	0.00232177
2	0	0	1	0	0	0	160.109	-0.800108	-0.800364	-2.89882	-0.572897	-0.572897	11	-0.159138	0	-0.216629	1600	0.159138	0.000000000000000E+000	0.159138	0.0000000E+000	0.000000000000000E+000	0.00232011
2	0	0	1	0	0	0	160.909	-0.800108	-0.800459	-2.89305	-0.575214	-0.575214	11	-0.159782	0	-0.216629	1600	0.159782	0.000000000000000E+000	0.159782	0.0000000E+000	0.000000000000000E+000	0.00231577
2	0	0	1	0	0	0	161.709	-0.800108	-0.800364	-2.89222	-0.577528	-0.577528	11	-0.160424	0	-0.121168	1600	0.160424	0.000000000000000E+000	0.160424	0.0000000E+000	0.000000000000000E+000	0.00231483
2	0	0	1	0	0	0	162.509	-0.800108	-0.800593	-2.89182	-0.579841	-0.579841	11	-0.161067	0	-0.216629	1600	0.161067	0.000000000000000E+000	0.161067	0.0000000E+000	0.000000000000000E+000	0.00231517
2	0	0	1	0	0	0	163.309	-0.800108	-0.800497	-2.88867	-0.582153	-0.582153	11	-0.161709	0	-0.216629	1600	0.161709	0.000000000000000E+000	0.161709	0.0000000E+000	0.000000000000000E+000	0.00231238
2	0	0	1	0	0	0	164.109	-0.800108	-0.800345	-2.88767	-0.584464	-0.584464	11	-0.162351	0	-0.216629	1600	0.162351	0.000000000000000E+000	0.162351	0.0000000E+000	0.000000000000000E+000	0.00231113
2	0	0	1	0	0	0	164.909	-0.800108	-0.800402	-2.88791	-0.586774	-0.586774	11	-0.162993	0	-0.197537	1600	0.162993	0.000000000000000E+000	0.162993	0.0000000E+000	0.000000000000000E+000	0.00231148
2	0	0	1	0	0	0	165.709	-0.800108	-0.800459	-2.88639	-0.589083	-0.589083	11	-0.163634	0	-0.197537	1600	0.163634	0.000000000000000E+000	0.163634	0.0000000E+000	0.000000000000000E+000	0.00231044
2	0	0	1	0	0	0	166.509	-0.800108	-0.80044	-2.88219	-0.591391	-0.591391	11	-0.164275	0	-0.178445	1600	0.164275	0.000000000000000E+000	0.164275	0.0000000E+000	0.000000000000000E+000	0.00230702
2	0	0	1	0	0	0	167.309	-0.800108	-0.800516	-2.87905	-0.593695	-0.593695	11	-0.164915	0	-0.159353	1600	0.164915	0.000000000000000E+000	0.164915	0.0000000E+000	0.000000000000000E+000	0.00230472
2	0	0	1	0	0	0	168.109	-0.800108	-0.800478	-2.88047	-0.595999	-0.595999	11	-0.165555	0	-0.216629	1600	0.165555	0.000000000000000E+000	0.165555	0.0000000E+000	0.000000000000000E+000	0.00230576
2	0	0	1	0	0	0	168.909	-0.800108	-0.800345	-2.87894	-0.598303	-0.598303	11	-0.166195	0	-0.197537	1600	0.166195	0.000000000000000E+000	0.166195	0.0000000E+000	0.000000000000000E+000	0.00230414
2	0	0	1	0	0	0	169.709	-0.800108	-0.800593	-2.95602	-0.600636	-0.600636	11	-0.166843	0	-0.273906	1600	0.166843	0.000000000000000E+000	0.166843	0.0000000E+000	0.000000000000000E+000	0.00236657
2	0	0	1	0	0	0	170.509	-0.800108	-0.800574	-2.98587	-0.603022	-0.603022	11	-0.167506	0	-0.292998	1600	0.167506	0.000000000000000E+000	0.167506	0.0000000E+000	0.000000000000000E+000	0.00239041
2	0	0	1	0	0	0	171.309	-0.800108	-0.800478	-2.98133	-0.60541	-0.60541	11	-0.16817	0	-0.235721	1600	0.16817	0.000000000000000E+000	0.16817	0.0000000E+000	0.000000000000000E+000	0.00238649
2	0	0	1	0	0	0	172.109	-0.800108	-0.800459	-2.97678	-0.607796	-0.607796	11	-0.168832	0	-0.254813	1600	0.168832	0.000000000000000E+000	0.168832	0.0000000E+000	0.000000000000000E+000	0.00238279
2	0	0	1	0	0	0	172.909	-0.800108	-0.800287	-2.97384	-0.610179	-0.610179	11	-0.169494	0	-0.121168	1600	0.169494	0.000000000000000E+000	0.169494	0.0000000E+000	0.000000000000000E+000	0.00237992
2	0	0	1	0	0	0	173.709	-0.800108	-0.800306	-2.97436	-0.61256	-0.61256	11	-0.170155	0	-0.216629	1600	0.170155	0.000000000000000E+000	0.170155	0.0000000E+000	0.000000000000000E+000	0.0023804
2	0	0	1	0	0	0	174.509	-0.800108	-0.800364	-2.97179	-0.614939	-0.614939	11	-0.170816	0	-0.254813	1600	0.170816	0.000000000000000E+000	0.170816	0.0000000E+000	0.000000000000000E+000	0.00237852
2	0	0	1	0	0	0	175.309	-0.800108	-0.800383	-2.97028	-0.617317	-0.617317	11	-0.171477	0	-0.331182	1600	0.171477	0.000000000000000E+000	0.171477	0.0000000E+000	0.000000000000000E+000	0.00237736
2	0	0	1	0	0	0	176.109	-0.800108	-0.800574	-2.97117	-0.619694	-0.619694	11	-0.172137	0	-0.197537	1600	0.172137	0.000000000000000E+000	0.172137	0.0000000E+000	0.000000000000000E+000	0.00237864
2	0	0	1	0	0	0	176.909	-0.800108	-0.800478	-2.96903	-0.622069	-0.622069	11	-0.172797	0	-0.273906	1600	0.172797	0.000000000000000E+000	0.172797	0.0000000E+000	0.000000000000000E+000	0.00237665
2	0	0	1	0	0	0	177.709	-0.800108	-0.800325	-2.96668	-0.624443	-0.624443	11	-0.173456	0	-0.235721	1600	0.173456	0.000000000000000E+000	0.173456	0.0000000E+000	0.000000000000000E+000	0.00237431
2	0	0	1	0	0	0	178.509	-0.800108	-0.800345	-2.96748	-0.626816	-0.626816	11	-0.174115	0	-0.216629	1600	0.174115	0.000000000000000E+000	0.174115	0.0000000E+000	0.000000000000000E+000	0.00237501
2	0	0	1	0	0	0	179.309	-0.800108	-0.80044	-2.96587	-0.629188	-0.629188	11	-0.174774	0	-0.216629	1600	0.174774	0.000000000000000E+000	0.174774	0.0000000E+000	0.000000000000000E+000	0.002374
2	0	0	1	0	0	0	180.109	-0.800108	-0.800478	-2.96369	-0.631558	-0.631558	11	-0.175433	0	-0.159353	1600	0.175433	0.000000000000000E+000	0.175433	0.0000000E+000	0.000000000000000E+000	0.00237237
2	0	0	1	0	0	0	180.909	-0.800108	-0.800516	-2.96393	-0.633926	-0.633926	11	-0.176091	0	-0.197537	1600	0.176091	0.000000000000000E+000	0.176091	0.0000000E+000	0.000000000000000E+000	0.00237268
2	0	0	1	0	0	0	181.709	-0.800108	-0.800402	-2.96319	-0.636294	-0.636294	11	-0.176748	0	-0.159353	1600	0.176748	0.000000000000000E+000	0.176748	0.0000000E+000	0.000000000000000E+000	0.00237174
2	0	0	1	0	0	0	182.509	-0.800108	-0.80044	-2.958	-0.63866	-0.63866	11	-0.177405	0	-0.159353	1600	0.177405	0.000000000000000E+000	0.177405	0.0000000E+000	0.000000000000000E+000	0.0023677
2	0	0	1	0	0	0	183.309	-0.800108	-0.800345	-2.95873	-0.641026	-0.641026	11	-0.178063	0	-0.197537	1600	0.178063	0.000000000000000E+000	0.178063	0.0000000E+000	0.000000000000000E+000	0.00236801
2	0	0	1	0	0	0	184.109	-0.800108	-0.80065	-3.11562	-0.643476	-0.643476	11	-0.178743	0	-0.216629	1600	0.178743	0.000000000000000E+000	0.178743	0.0000000E+000	0.000000000000000E+000	0.00249452
2	0	0	1	0	0	0	184.909	-0.800108	-0.800364	-3.08566	-0.645952	-0.645952	11	-0.179431	0	-0.178445	1600	0.179431	0.000000000000000E+000	0.179431	0.0000000E+000	0.000000000000000E+000	0.00246965
2	0	0	1	0	0	0	185.709	-0.800108	-0.800383	-3.08723	-0.648422	-0.648422	11	-0.180117	0	-0.178445	1600	0.180117	0.000000000000000E+000	0.180117	0.0000000E+000	0.000000000000000E+000	0.00247097
2	0	0	1	0	0	0	186.509	-0.800108	-0.800497	-3.08546	-0.65089	-0.65089	11	-0.180803	0	-0.273906	1600	0.180803	0.000000000000000E+000	0.180803	0.0000000E+000	0.000000000000000E+000	0.0024699
2	0	0	1	0	0	0	187.309	-0.800108	-0.800497	-3.07941	-0.653356	-0.653356	11	-0.181488	0	-0.292998	1600	0.181488	0.000000000000000E+000	0.181488	0.0000000E+000	0.000000000000000E+000	0.00246506
2	0	0	1	0	0	0	188.109	-0.800108	-0.800555	-3.07985	-0.65582	-0.65582	11	-0.182172	0	-0.159353	1600	0.182172	0.000000000000000E+000	0.182172	0.0000000E+000	0.000000000000000E+000	0.00246559
2	0	0	1	0	0	0	188.909	-0.800108	-0.800383	-3.07675	-0.658283	-0.658283	11	-0.182856	0	-0.292998	1600	0.182856	0.000000000000000E+000	0.182856	0.0000000E+000	0.000000000000000E+000	0.00246257
2	0	0	1	0	0	0	189.709	-0.800108	-0.800402	-3.0745	-0.660743	-0.660743	11	-0.18354	0	-0.254813	1600	0.18354	0.000000000000000E+000	0.18354	0.0000000E+000	0.000000000000000E+000	0.00246083
2	0	0	1	0	0	0	190.509	-0.800108	-0.800383	-3.0717	-0.663201	-0.663201	11	-0.184223	0	-0.254813	1600	0.184223	0.000000000000000E+000	0.184223	0.0000000E+000	0.000000000000000E+000	0.00245853
2	0	0	1	0	0	0	191.309	-0.800108	-0.800402	-3.06946	-0.665658	-0.665658	11	-0.184905	0	-0.102076	1600	0.184905	0.000000000000000E+000	0.184905	0.0000000E+000	0.000000000000000E+000	0.0024568
2	0	0	1	0	0	0	192.109	-0.800108	-0.800364	-3.06541	-0.668112	-0.668112	11	-0.185587	0	-0.159353	1600	0.185587	0.000000000000000E+000	0.185587	0.0000000E+000	0.000000000000000E+000	0.00245345
2	0	0	1	0	0	0	192.909	-0.800108	-0.800516	-3.06555	-0.670565	-0.670565	11	-0.186268	0	-0.102076	1600	0.186268	0.000000000000000E+000	0.186268	0.0000000E+000	0.000000000000000E+000	0.00245403
2	0	0	1	0	0	0	193.709	-0.800108	-0.800402	-3.06217	-0.673015	-0.673015	11	-0.186949	0	-0.216629	1600	0.186949	0.000000000000000E+000	0.186949	0.0000000E+000	0.000000000000000E+000	0.00245097
2	0	0	1	0	0	0	194.509	-0.800108	-0.800345	-3.06064	-0.675465	-0.675465	11	-0.187629	0	-0.121168	1600	0.187629	0.000000000000000E+000	0.187629	0.0000000E+000	0.000000000000000E+000	0.00244957
2	0	0	1	0	0	0	195.309	-0.800108	-0.800459	-3.06143	-0.677913	-0.677913	11	-0.188309	0	-0.197537	1600	0.188309	0.000000000000000E+000	0.188309	0.0000000E+000	0.000000000000000E+000	0.00245055
2	0	0	1	0	0	0	195.491	-0.800108	-0.800306	-3.05805	-0.67847	-0.67847	11	-0.188464	0	-0.254813	1600	0.188464	0.000000000000000E+000	0.188464	INF	0.000000000000000E+000	0.00244737