File: ZnPVAGAECH_07 RDE 1 ECH 1600 rpm K-L.mpt
EC-Lab ASCII FILE
Nb header lines : 66

Chronoamperometry / Chronocoulometry

Run on channel : 5 (SN 6729)
User :
CE vs. WE compliance from -10 V to 10 V
Electrode connection : standard
Potential control : Ewe
Ewe ctrl range : min = -2.50 V, max = 2.50 V
Safety Limits :
	Do not start on E overload
Acquisition started on : 03/23/2022 15:50:02.769
Technique started on : 03/23/2022 15:57:51.603
Loaded Setting File :  NONE
Saved on :
	File : 03-23-22-ZnPVAGA  ECH KL 100-1600 rpm at -0_8V vs RHE RDE1_03_CA_C05.mpr
	Directory : \\research-scb.egr.msu.edu\research-scb\Mindy\Koutecky Levich\Zn GA PVA 001\ECH\03-23-22\
	Host : 35.9.136.210
Device : VSP (SN 0012)
Address : 35.9.137.65
EC-Lab for windows v11.43 (software)
Internet server v11.40 (firmware)
Command interpretor v11.40 (firmware)
Electrode material : Au/Pd
Initial state :
Electrolyte : NaCl (0.2M)
Comments : Fe(CN)63-/Fe(CN)64- 5.10-3 M
Reference electrode : SCE Saturated Calomel Electrode (0.241 V)
Electrode surface area : 0.196 cm²
Characteristic mass : 0.001 g
Equivalent Weight : 0.000 g/eq.
Density : 0.000 g/cm3
Volume (V) : 0.001 cm³
Cycle Definition : Charge/Discharge alternance
Ei (V)              -0.700
vs.                 Ref
ti (h:m:s)          0:30:0.0000
Imax                pass
unit Imax           mA
Imin                pass
unit Imin           mA
dQM                 0.000
unit dQM            mA.h
record              <I>
dI                  5.000
unit dI             µA
dQ                  0.000
unit dQ             mA.h
dt (s)              0.1000
dta (s)             0.1000
E range min (V)     -2.500
E range max (V)     2.500
I Range             Auto
I Range min         Unset
I Range max         Unset
I Range init        Unset
Bandwidth           5
goto Ns'            0
nc cycles           0

Modify on : 03/23/2022 15:57
Ei (V)              -0.650

mode	ox/red	error	control changes	Ns changes	counter inc.	Ns	time/s	control/V	Ewe/V	<I>/mA	dQ/C	(Q-Qo)/C	I Range	Q charge/discharge/mA.h	half cycle	Q discharge/mA.h	Q charge/mA.h	Capacity/mA.h	Efficiency/%	cycle number	P/W
2	0	0	1	0	0	0	468.834	-0.649954	-0.650362	-1.06194	-4.90695e-05	-4.90695e-05	12	-1.36304e-05	0	1.36304e-05	0.000000000000000E+000	1.36304e-05	0.0000000E+000	0.000000000000000E+000	0.000690644
2	0	0	1	0	0	0	469.534	-0.649954	-0.650458	-1.05255	-0.000786681	-0.000786681	12	-0.000218522	0	0.000218522	0.000000000000000E+000	0.000218522	0.0000000E+000	0.000000000000000E+000	0.000684641
2	0	0	1	0	0	0	470.234	-0.649954	-0.650152	-1.0528	-0.00152362	-0.00152362	12	-0.000423226	0	0.000423226	0.000000000000000E+000	0.000423226	0.0000000E+000	0.000000000000000E+000	0.000684478
2	0	0	1	0	0	0	470.934	-0.649954	-0.650152	-1.05363	-0.00226064	-0.00226064	12	-0.000627955	0	0.000627955	0.000000000000000E+000	0.000627955	0.0000000E+000	0.000000000000000E+000	0.000685023
2	0	0	1	0	0	0	471.634	-0.649954	-0.650324	-1.05269	-0.00299742	-0.00299742	12	-0.000832618	0	0.000832618	0.000000000000000E+000	0.000832618	0.0000000E+000	0.000000000000000E+000	0.00068459
2	0	0	1	0	0	0	472.334	-0.649954	-0.650171	-1.05192	-0.00373418	-0.00373418	12	-0.00103727	0	0.00103727	0.000000000000000E+000	0.00103727	0.0000000E+000	0.000000000000000E+000	0.000683929
2	0	0	1	0	0	0	473.034	-0.649954	-0.65019	-1.05276	-0.00447102	-0.00447102	12	-0.00124195	0	0.00124195	0.000000000000000E+000	0.00124195	0.0000000E+000	0.000000000000000E+000	0.000684496
2	0	0	1	0	0	0	473.734	-0.649954	-0.650286	-1.05302	-0.00520779	-0.00520779	12	-0.00144661	0	0.00144661	0.000000000000000E+000	0.00144661	0.0000000E+000	0.000000000000000E+000	0.000684765
2	0	0	1	0	0	0	474.434	-0.649954	-0.65042	-1.05224	-0.00594456	-0.00594456	12	-0.00165127	0	0.00165127	0.000000000000000E+000	0.00165127	0.0000000E+000	0.000000000000000E+000	0.000684397
2	0	0	1	0	0	0	475.134	-0.649954	-0.650343	-1.05169	-0.00668105	-0.00668105	12	-0.00185585	0	0.00185585	0.000000000000000E+000	0.00185585	0.0000000E+000	0.000000000000000E+000	0.000683961
2	0	0	1	0	0	0	475.834	-0.649954	-0.650267	-1.05142	-0.00741715	-0.00741715	12	-0.00206032	0	0.00206032	0.000000000000000E+000	0.00206032	0.0000000E+000	0.000000000000000E+000	0.000683703
2	0	0	1	0	0	0	476.534	-0.649954	-0.650324	-1.05116	-0.00815304	-0.00815304	12	-0.00226473	0	0.00226473	0.000000000000000E+000	0.00226473	0.0000000E+000	0.000000000000000E+000	0.000683597
2	0	0	1	0	0	0	477.234	-0.649954	-0.650286	-1.05145	-0.00888907	-0.00888907	12	-0.00246919	0	0.00246919	0.000000000000000E+000	0.00246919	0.0000000E+000	0.000000000000000E+000	0.000683742
2	0	0	1	0	0	0	477.934	-0.649954	-0.650324	-1.05069	-0.0096248	-0.0096248	12	-0.00267356	0	0.00267356	0.000000000000000E+000	0.00267356	0.0000000E+000	0.000000000000000E+000	0.000683291
2	0	0	1	0	0	0	478.634	-0.649954	-0.650343	-1.0506	-0.0103602	-0.0103602	12	-0.00287782	0	0.00287782	0.000000000000000E+000	0.00287782	0.0000000E+000	0.000000000000000E+000	0.00068325
2	0	0	1	0	0	0	479.334	-0.649954	-0.65042	-1.04961	-0.0110953	-0.0110953	12	-0.00308203	0	0.00308203	0.000000000000000E+000	0.00308203	0.0000000E+000	0.000000000000000E+000	0.000682689
2	0	0	1	0	0	0	480.034	-0.649954	-0.650267	-1.04945	-0.0118302	-0.0118302	12	-0.00328618	0	0.00328618	0.000000000000000E+000	0.00328618	0.0000000E+000	0.000000000000000E+000	0.000682424
2	0	0	1	0	0	0	480.734	-0.649954	-0.650381	-1.04945	-0.0125648	-0.0125648	12	-0.00349021	0	0.00349021	0.000000000000000E+000	0.00349021	0.0000000E+000	0.000000000000000E+000	0.000682541
2	0	0	1	0	0	0	481.434	-0.649954	-0.650305	-1.04912	-0.0132992	-0.0132992	12	-0.00369423	0	0.00369423	0.000000000000000E+000	0.00369423	0.0000000E+000	0.000000000000000E+000	0.000682248
2	0	0	1	0	0	0	482.134	-0.649954	-0.650229	-1.0494	-0.0140337	-0.0140337	12	-0.00389825	0	0.00389825	0.000000000000000E+000	0.00389825	0.0000000E+000	0.000000000000000E+000	0.000682352
2	0	0	1	0	0	0	482.834	-0.649954	-0.650057	-1.04828	-0.0147679	-0.0147679	12	-0.0041022	0	0.0041022	0.000000000000000E+000	0.0041022	0.0000000E+000	0.000000000000000E+000	0.000681443
2	0	0	1	0	0	0	483.534	-0.649954	-0.650305	-1.01654	-0.0154948	-0.0154948	12	-0.00430411	0	0.00430411	0.000000000000000E+000	0.00430411	0.0000000E+000	0.000000000000000E+000	0.000661059
2	0	0	1	0	0	0	484.234	-0.649954	-0.650477	-1.00748	-0.0161989	-0.0161989	12	-0.00449971	0	0.00449971	0.000000000000000E+000	0.00449971	0.0000000E+000	0.000000000000000E+000	0.000655342
2	0	0	1	0	0	0	484.934	-0.649954	-0.650381	-1.01346	-0.0169075	-0.0169075	12	-0.00469652	0	0.00469652	0.000000000000000E+000	0.00469652	0.0000000E+000	0.000000000000000E+000	0.000659138
2	0	0	1	0	0	0	485.634	-0.649954	-0.650248	-1.01316	-0.017617	-0.017617	12	-0.0048936	0	0.0048936	0.000000000000000E+000	0.0048936	0.0000000E+000	0.000000000000000E+000	0.000658807
2	0	0	1	0	0	0	486.334	-0.649954	-0.650439	-1.01352	-0.0183264	-0.0183264	12	-0.00509068	0	0.00509068	0.000000000000000E+000	0.00509068	0.0000000E+000	0.000000000000000E+000	0.00065923
2	0	0	1	0	0	0	487.034	-0.649954	-0.650305	-1.01339	-0.0190357	-0.0190357	12	-0.00528771	0	0.00528771	0.000000000000000E+000	0.00528771	0.0000000E+000	0.000000000000000E+000	0.000659012
2	0	0	1	0	0	0	487.734	-0.649954	-0.650267	-1.01277	-0.0197448	-0.0197448	12	-0.00548468	0	0.00548468	0.000000000000000E+000	0.00548468	0.0000000E+000	0.000000000000000E+000	0.000658568
2	0	0	1	0	0	0	488.434	-0.649954	-0.650439	-1.01269	-0.0204537	-0.0204537	12	-0.00568159	0	0.00568159	0.000000000000000E+000	0.00568159	0.0000000E+000	0.000000000000000E+000	0.000658694
2	0	0	1	0	0	0	489.134	-0.649954	-0.650171	-1.0125	-0.0211625	-0.0211625	12	-0.00587848	0	0.00587848	0.000000000000000E+000	0.00587848	0.0000000E+000	0.000000000000000E+000	0.000658299
2	0	0	1	0	0	0	489.834	-0.649954	-0.650267	-1.01267	-0.0218713	-0.0218713	12	-0.00607535	0	0.00607535	0.000000000000000E+000	0.00607535	0.0000000E+000	0.000000000000000E+000	0.000658506
2	0	0	1	0	0	0	490.534	-0.649954	-0.650458	-1.01177	-0.0225796	-0.0225796	12	-0.00627212	0	0.00627212	0.000000000000000E+000	0.00627212	0.0000000E+000	0.000000000000000E+000	0.000658115
2	0	0	1	0	0	0	491.234	-0.649954	-0.650286	-1.01249	-0.0232881	-0.0232881	12	-0.00646891	0	0.00646891	0.000000000000000E+000	0.00646891	0.0000000E+000	0.000000000000000E+000	0.000658408
2	0	0	1	0	0	0	491.934	-0.649954	-0.650286	-1.01165	-0.0239965	-0.0239965	12	-0.00666568	0	0.00666568	0.000000000000000E+000	0.00666568	0.0000000E+000	0.000000000000000E+000	0.000657863
2	0	0	1	0	0	0	492.634	-0.649954	-0.650171	-1.01123	-0.0247045	-0.0247045	12	-0.00686236	0	0.00686236	0.000000000000000E+000	0.00686236	0.0000000E+000	0.000000000000000E+000	0.00065747
2	0	0	1	0	0	0	493.334	-0.649954	-0.650286	-0.997297	-0.0254079	-0.0254079	12	-0.00705775	0	0.00705775	0.000000000000000E+000	0.00705775	0.0000000E+000	0.000000000000000E+000	0.000648528
2	0	0	1	0	0	0	494.034	-0.649954	-0.650343	-0.986205	-0.0261003	-0.0261003	12	-0.00725008	0	0.00725008	0.000000000000000E+000	0.00725008	0.0000000E+000	0.000000000000000E+000	0.000641372
2	0	0	1	0	0	0	494.734	-0.649954	-0.650229	-0.985843	-0.0267907	-0.0267907	12	-0.00744185	0	0.00744185	0.000000000000000E+000	0.00744185	0.0000000E+000	0.000000000000000E+000	0.000641023
2	0	0	1	0	0	0	495.434	-0.649954	-0.650248	-0.986109	-0.027481	-0.027481	12	-0.00763362	0	0.00763362	0.000000000000000E+000	0.00763362	0.0000000E+000	0.000000000000000E+000	0.000641215
2	0	0	1	0	0	0	496.134	-0.649954	-0.6504	-0.985821	-0.0281711	-0.0281711	12	-0.0078253	0	0.0078253	0.000000000000000E+000	0.0078253	0.0000000E+000	0.000000000000000E+000	0.000641179
2	0	0	1	0	0	0	496.834	-0.649954	-0.650305	-0.985683	-0.0288611	-0.0288611	12	-0.00801698	0	0.00801698	0.000000000000000E+000	0.00801698	0.0000000E+000	0.000000000000000E+000	0.000640995
2	0	0	1	0	0	0	497.534	-0.649954	-0.650343	-0.985821	-0.0295511	-0.0295511	12	-0.00820865	0	0.00820865	0.000000000000000E+000	0.00820865	0.0000000E+000	0.000000000000000E+000	0.000641122
2	0	0	1	0	0	0	498.234	-0.649954	-0.650286	-0.98517	-0.0302411	-0.0302411	12	-0.00840029	0	0.00840029	0.000000000000000E+000	0.00840029	0.0000000E+000	0.000000000000000E+000	0.000640642
2	0	0	1	0	0	0	498.934	-0.649954	-0.65021	-0.985417	-0.0309308	-0.0309308	12	-0.00859188	0	0.00859188	0.000000000000000E+000	0.00859188	0.0000000E+000	0.000000000000000E+000	0.000640727
2	0	0	1	0	0	0	499.634	-0.649954	-0.650343	-0.985134	-0.0316206	-0.0316206	12	-0.00878349	0	0.00878349	0.000000000000000E+000	0.00878349	0.0000000E+000	0.000000000000000E+000	0.000640676
2	0	0	1	0	0	0	500.334	-0.649954	-0.650286	-0.9851	-0.0323101	-0.0323101	12	-0.00897504	0	0.00897504	0.000000000000000E+000	0.00897504	0.0000000E+000	0.000000000000000E+000	0.000640597
2	0	0	1	0	0	0	501.034	-0.649954	-0.65021	-0.985291	-0.0329996	-0.0329996	12	-0.00916657	0	0.00916657	0.000000000000000E+000	0.00916657	0.0000000E+000	0.000000000000000E+000	0.000640646
2	0	0	1	0	0	0	501.734	-0.649954	-0.650286	-0.984372	-0.0336889	-0.0336889	12	-0.00935803	0	0.00935803	0.000000000000000E+000	0.00935803	0.0000000E+000	0.000000000000000E+000	0.000640123
2	0	0	1	0	0	0	502.434	-0.649954	-0.650229	-0.984503	-0.0343781	-0.0343781	12	-0.00954947	0	0.00954947	0.000000000000000E+000	0.00954947	0.0000000E+000	0.000000000000000E+000	0.000640152
2	0	0	1	0	0	0	503.134	-0.649954	-0.650229	-0.984637	-0.0350672	-0.0350672	12	-0.0097409	0	0.0097409	0.000000000000000E+000	0.0097409	0.0000000E+000	0.000000000000000E+000	0.000640239
2	0	0	1	0	0	0	503.834	-0.649954	-0.650286	-0.984333	-0.0357563	-0.0357563	12	-0.00993231	0	0.00993231	0.000000000000000E+000	0.00993231	0.0000000E+000	0.000000000000000E+000	0.000640098
2	0	0	1	0	0	0	504.534	-0.649954	-0.650343	-0.984252	-0.0364452	-0.0364452	12	-0.0101237	0	0.0101237	0.000000000000000E+000	0.0101237	0.0000000E+000	0.000000000000000E+000	0.000640101
2	0	0	1	0	0	0	505.234	-0.649954	-0.65042	-0.983512	-0.0371338	-0.0371338	12	-0.0103149	0	0.0103149	0.000000000000000E+000	0.0103149	0.0000000E+000	0.000000000000000E+000	0.000639696
2	0	0	1	0	0	0	505.934	-0.649954	-0.650267	-0.983164	-0.0378223	-0.0378223	12	-0.0105062	0	0.0105062	0.000000000000000E+000	0.0105062	0.0000000E+000	0.000000000000000E+000	0.000639319
2	0	0	1	0	0	0	506.634	-0.649954	-0.650343	-0.969425	-0.0385065	-0.0385065	12	-0.0106963	0	0.0106963	0.000000000000000E+000	0.0106963	0.0000000E+000	0.000000000000000E+000	0.000630459
2	0	0	1	0	0	0	507.334	-0.649954	-0.650324	-0.946834	-0.0391736	-0.0391736	12	-0.0108815	0	0.0108815	0.000000000000000E+000	0.0108815	0.0000000E+000	0.000000000000000E+000	0.000615749
2	0	0	1	0	0	0	508.034	-0.649954	-0.650286	-0.938965	-0.0398322	-0.0398322	12	-0.0110645	0	0.0110645	0.000000000000000E+000	0.0110645	0.0000000E+000	0.000000000000000E+000	0.000610596
2	0	0	1	0	0	0	508.734	-0.649954	-0.650362	-0.934827	-0.0404879	-0.0404879	12	-0.0112466	0	0.0112466	0.000000000000000E+000	0.0112466	0.0000000E+000	0.000000000000000E+000	0.000607976
2	0	0	1	0	0	0	509.434	-0.649954	-0.650286	-0.933257	-0.0411422	-0.0411422	12	-0.0114284	0	0.0114284	0.000000000000000E+000	0.0114284	0.0000000E+000	0.000000000000000E+000	0.000606884
2	0	0	1	0	0	0	510.134	-0.649954	-0.650229	-0.932819	-0.041796	-0.041796	12	-0.01161	0	0.01161	0.000000000000000E+000	0.01161	0.0000000E+000	0.000000000000000E+000	0.000606546
2	0	0	1	0	0	0	510.834	-0.649954	-0.650305	-0.93378	-0.0424497	-0.0424497	12	-0.0117916	0	0.0117916	0.000000000000000E+000	0.0117916	0.0000000E+000	0.000000000000000E+000	0.000607242
2	0	0	1	0	0	0	511.534	-0.649954	-0.650343	-0.934782	-0.0431028	-0.0431028	12	-0.011973	0	0.011973	0.000000000000000E+000	0.011973	0.0000000E+000	0.000000000000000E+000	0.000607929
2	0	0	1	0	0	0	512.234	-0.649954	-0.650305	-0.933677	-0.0437555	-0.0437555	12	-0.0121543	0	0.0121543	0.000000000000000E+000	0.0121543	0.0000000E+000	0.000000000000000E+000	0.000607175
2	0	0	1	0	0	0	512.934	-0.649954	-0.650305	-0.932324	-0.0444082	-0.0444082	12	-0.0123356	0	0.0123356	0.000000000000000E+000	0.0123356	0.0000000E+000	0.000000000000000E+000	0.000606295
2	0	0	1	0	0	0	513.634	-0.649954	-0.65042	-0.930755	-0.0450607	-0.0450607	12	-0.0125169	0	0.0125169	0.000000000000000E+000	0.0125169	0.0000000E+000	0.000000000000000E+000	0.000605381
2	0	0	1	0	0	0	514.334	-0.649954	-0.650229	-0.930071	-0.0457129	-0.0457129	12	-0.012698	0	0.012698	0.000000000000000E+000	0.012698	0.0000000E+000	0.000000000000000E+000	0.000604759
2	0	0	1	0	0	0	515.034	-0.649954	-0.650229	-0.93065	-0.046365	-0.046365	12	-0.0128792	0	0.0128792	0.000000000000000E+000	0.0128792	0.0000000E+000	0.000000000000000E+000	0.000605135
2	0	0	1	0	0	0	515.734	-0.649954	-0.650343	-0.932323	-0.0470171	-0.0470171	12	-0.0130603	0	0.0130603	0.000000000000000E+000	0.0130603	0.0000000E+000	0.000000000000000E+000	0.00060633
2	0	0	1	0	0	0	516.434	-0.649954	-0.650229	-0.933123	-0.047669	-0.047669	12	-0.0132414	0	0.0132414	0.000000000000000E+000	0.0132414	0.0000000E+000	0.000000000000000E+000	0.000606743
2	0	0	1	0	0	0	517.134	-0.649954	-0.650458	-0.9326	-0.0483208	-0.0483208	12	-0.0134225	0	0.0134225	0.000000000000000E+000	0.0134225	0.0000000E+000	0.000000000000000E+000	0.000606617
2	0	0	1	0	0	0	517.834	-0.649954	-0.650286	-0.930545	-0.0489726	-0.0489726	12	-0.0136035	0	0.0136035	0.000000000000000E+000	0.0136035	0.0000000E+000	0.000000000000000E+000	0.00060512
2	0	0	1	0	0	0	518.534	-0.649954	-0.650305	-0.929664	-0.0496244	-0.0496244	12	-0.0137845	0	0.0137845	0.000000000000000E+000	0.0137845	0.0000000E+000	0.000000000000000E+000	0.000604565
2	0	0	1	0	0	0	519.234	-0.649954	-0.650095	-0.929745	-0.0502761	-0.0502761	12	-0.0139656	0	0.0139656	0.000000000000000E+000	0.0139656	0.0000000E+000	0.000000000000000E+000	0.000604423
2	0	0	1	0	0	0	519.934	-0.649954	-0.650229	-0.930447	-0.0509278	-0.0509278	12	-0.0141466	0	0.0141466	0.000000000000000E+000	0.0141466	0.0000000E+000	0.000000000000000E+000	0.000605004
2	0	0	1	0	0	0	520.634	-0.649954	-0.650324	-0.932341	-0.0515796	-0.0515796	12	-0.0143277	0	0.0143277	0.000000000000000E+000	0.0143277	0.0000000E+000	0.000000000000000E+000	0.000606324
2	0	0	1	0	0	0	521.334	-0.649954	-0.6504	-0.932242	-0.0522312	-0.0522312	12	-0.0145087	0	0.0145087	0.000000000000000E+000	0.0145087	0.0000000E+000	0.000000000000000E+000	0.000606331
2	0	0	1	0	0	0	522.034	-0.649954	-0.650381	-0.931407	-0.0528827	-0.0528827	12	-0.0146896	0	0.0146896	0.000000000000000E+000	0.0146896	0.0000000E+000	0.000000000000000E+000	0.00060577
2	0	0	1	0	0	0	522.734	-0.649954	-0.650362	-0.928764	-0.0535339	-0.0535339	12	-0.0148705	0	0.0148705	0.000000000000000E+000	0.0148705	0.0000000E+000	0.000000000000000E+000	0.000604033
2	0	0	1	0	0	0	523.434	-0.649954	-0.650324	-0.921446	-0.0541828	-0.0541828	12	-0.0150508	0	0.0150508	0.000000000000000E+000	0.0150508	0.0000000E+000	0.000000000000000E+000	0.000599238
2	0	0	1	0	0	0	524.134	-0.649954	-0.650229	-0.905093	-0.054821	-0.054821	12	-0.0152281	0	0.0152281	0.000000000000000E+000	0.0152281	0.0000000E+000	0.000000000000000E+000	0.000588517
2	0	0	1	0	0	0	524.834	-0.649954	-0.650286	-0.902336	-0.0554525	-0.0554525	12	-0.0154035	0	0.0154035	0.000000000000000E+000	0.0154035	0.0000000E+000	0.000000000000000E+000	0.000586776
2	0	0	1	0	0	0	525.534	-0.649954	-0.65042	-0.894117	-0.0560809	-0.0560809	12	-0.015578	0	0.015578	0.000000000000000E+000	0.015578	0.0000000E+000	0.000000000000000E+000	0.000581551
2	0	0	1	0	0	0	526.234	-0.649954	-0.650305	-0.897515	-0.0567083	-0.0567083	12	-0.0157523	0	0.0157523	0.000000000000000E+000	0.0157523	0.0000000E+000	0.000000000000000E+000	0.000583659
2	0	0	1	0	0	0	526.934	-0.649954	-0.65019	-0.893568	-0.0573352	-0.0573352	12	-0.0159264	0	0.0159264	0.000000000000000E+000	0.0159264	0.0000000E+000	0.000000000000000E+000	0.000580989
2	0	0	1	0	0	0	527.634	-0.649954	-0.650305	-0.896512	-0.0579622	-0.0579622	12	-0.0161006	0	0.0161006	0.000000000000000E+000	0.0161006	0.0000000E+000	0.000000000000000E+000	0.000583006
2	0	0	1	0	0	0	528.334	-0.649954	-0.650324	-0.894422	-0.0585886	-0.0585886	12	-0.0162746	0	0.0162746	0.000000000000000E+000	0.0162746	0.0000000E+000	0.000000000000000E+000	0.000581664
2	0	0	1	0	0	0	529.034	-0.649954	-0.650248	-0.895012	-0.0592152	-0.0592152	12	-0.0164487	0	0.0164487	0.000000000000000E+000	0.0164487	0.0000000E+000	0.000000000000000E+000	0.00058198
2	0	0	1	0	0	0	529.734	-0.649954	-0.650267	-0.896194	-0.0598414	-0.0598414	12	-0.0166226	0	0.0166226	0.000000000000000E+000	0.0166226	0.0000000E+000	0.000000000000000E+000	0.000582765
2	0	0	1	0	0	0	530.434	-0.649954	-0.650305	-0.893724	-0.0604675	-0.0604675	12	-0.0167965	0	0.0167965	0.000000000000000E+000	0.0167965	0.0000000E+000	0.000000000000000E+000	0.000581193
2	0	0	1	0	0	0	531.134	-0.649954	-0.6504	-0.896099	-0.0610933	-0.0610933	12	-0.0169704	0	0.0169704	0.000000000000000E+000	0.0169704	0.0000000E+000	0.000000000000000E+000	0.000582823
2	0	0	1	0	0	0	531.834	-0.649954	-0.650343	-0.891588	-0.0617189	-0.0617189	12	-0.0171441	0	0.0171441	0.000000000000000E+000	0.0171441	0.0000000E+000	0.000000000000000E+000	0.000579838
2	0	0	1	0	0	0	532.534	-0.649954	-0.650362	-0.895593	-0.0623448	-0.0623448	12	-0.017318	0	0.017318	0.000000000000000E+000	0.017318	0.0000000E+000	0.000000000000000E+000	0.00058246
2	0	0	1	0	0	0	533.234	-0.649954	-0.6504	-0.893373	-0.0629707	-0.0629707	12	-0.0174919	0	0.0174919	0.000000000000000E+000	0.0174919	0.0000000E+000	0.000000000000000E+000	0.00058105
2	0	0	1	0	0	0	533.934	-0.649954	-0.650381	-0.895461	-0.0635973	-0.0635973	12	-0.0176659	0	0.0176659	0.000000000000000E+000	0.0176659	0.0000000E+000	0.000000000000000E+000	0.000582391
2	0	0	1	0	0	0	534.634	-0.649954	-0.650305	-0.895546	-0.0642236	-0.0642236	12	-0.0178399	0	0.0178399	0.000000000000000E+000	0.0178399	0.0000000E+000	0.000000000000000E+000	0.000582378
2	0	0	1	0	0	0	535.334	-0.649954	-0.650286	-0.894958	-0.0648501	-0.0648501	12	-0.0180139	0	0.0180139	0.000000000000000E+000	0.0180139	0.0000000E+000	0.000000000000000E+000	0.000581979
2	0	0	1	0	0	0	536.034	-0.649954	-0.650362	-0.896685	-0.0654767	-0.0654767	12	-0.018188	0	0.018188	0.000000000000000E+000	0.018188	0.0000000E+000	0.000000000000000E+000	0.00058317
2	0	0	1	0	0	0	536.734	-0.649954	-0.650362	-0.89328	-0.0661027	-0.0661027	12	-0.0183619	0	0.0183619	0.000000000000000E+000	0.0183619	0.0000000E+000	0.000000000000000E+000	0.000580956
2	0	0	1	0	0	0	537.434	-0.649954	-0.650171	-0.896481	-0.0667289	-0.0667289	12	-0.0185358	0	0.0185358	0.000000000000000E+000	0.0185358	0.0000000E+000	0.000000000000000E+000	0.000582866
2	0	0	1	0	0	0	538.134	-0.649954	-0.650324	-0.891952	-0.0673547	-0.0673547	12	-0.0187096	0	0.0187096	0.000000000000000E+000	0.0187096	0.0000000E+000	0.000000000000000E+000	0.000580058
2	0	0	1	0	0	0	538.834	-0.649954	-0.650305	-0.895787	-0.0679811	-0.0679811	12	-0.0188837	0	0.0188837	0.000000000000000E+000	0.0188837	0.0000000E+000	0.000000000000000E+000	0.000582535
2	0	0	1	0	0	0	539.534	-0.649954	-0.650286	-0.892418	-0.068607	-0.068607	12	-0.0190575	0	0.0190575	0.000000000000000E+000	0.0190575	0.0000000E+000	0.000000000000000E+000	0.000580327
2	0	0	1	0	0	0	540.234	-0.649954	-0.650324	-0.896403	-0.0692336	-0.0692336	12	-0.0192316	0	0.0192316	0.000000000000000E+000	0.0192316	0.0000000E+000	0.000000000000000E+000	0.000582952
2	0	0	1	0	0	0	540.934	-0.649954	-0.650229	-0.872558	-0.0698511	-0.0698511	12	-0.0194031	0	0.0194031	0.000000000000000E+000	0.0194031	0.0000000E+000	0.000000000000000E+000	0.000567362
2	0	0	1	0	0	0	541.634	-0.649954	-0.6504	-0.864074	-0.0704574	-0.0704574	12	-0.0195715	0	0.0195715	0.000000000000000E+000	0.0195715	0.0000000E+000	0.000000000000000E+000	0.000561994
2	0	0	1	0	0	0	542.334	-0.649954	-0.650248	-0.854548	-0.0710579	-0.0710579	12	-0.0197383	0	0.0197383	0.000000000000000E+000	0.0197383	0.0000000E+000	0.000000000000000E+000	0.000555668
2	0	0	1	0	0	0	543.034	-0.649954	-0.650286	-0.85434	-0.0716568	-0.0716568	12	-0.0199047	0	0.0199047	0.000000000000000E+000	0.0199047	0.0000000E+000	0.000000000000000E+000	0.000555566
2	0	0	1	0	0	0	543.734	-0.649954	-0.650362	-0.855025	-0.072254	-0.072254	12	-0.0200705	0	0.0200705	0.000000000000000E+000	0.0200705	0.0000000E+000	0.000000000000000E+000	0.000556076
2	0	0	1	0	0	0	544.434	-0.649954	-0.650286	-0.850399	-0.0728504	-0.0728504	12	-0.0202362	0	0.0202362	0.000000000000000E+000	0.0202362	0.0000000E+000	0.000000000000000E+000	0.000553002
2	0	0	1	0	0	0	545.134	-0.649954	-0.650305	-0.852514	-0.0734468	-0.0734468	12	-0.0204019	0	0.0204019	0.000000000000000E+000	0.0204019	0.0000000E+000	0.000000000000000E+000	0.000554394
2	0	0	1	0	0	0	545.834	-0.649954	-0.6504	-0.851096	-0.0740426	-0.0740426	12	-0.0205674	0	0.0205674	0.000000000000000E+000	0.0205674	0.0000000E+000	0.000000000000000E+000	0.000553553
2	0	0	1	0	0	0	546.534	-0.649954	-0.650305	-0.851278	-0.0746388	-0.0746388	12	-0.020733	0	0.020733	0.000000000000000E+000	0.020733	0.0000000E+000	0.000000000000000E+000	0.000553591
2	0	0	1	0	0	0	547.234	-0.649954	-0.6504	-0.853949	-0.0752348	-0.0752348	12	-0.0208986	0	0.0208986	0.000000000000000E+000	0.0208986	0.0000000E+000	0.000000000000000E+000	0.000555409
2	0	0	1	0	0	0	547.934	-0.649954	-0.650114	-0.84956	-0.0758306	-0.0758306	12	-0.0210641	0	0.0210641	0.000000000000000E+000	0.0210641	0.0000000E+000	0.000000000000000E+000	0.000552311
2	0	0	1	0	0	0	548.634	-0.649954	-0.650229	-0.851012	-0.0764266	-0.0764266	12	-0.0212296	0	0.0212296	0.000000000000000E+000	0.0212296	0.0000000E+000	0.000000000000000E+000	0.000553352
2	0	0	1	0	0	0	549.334	-0.649954	-0.650267	-0.851715	-0.0770219	-0.0770219	12	-0.021395	0	0.021395	0.000000000000000E+000	0.021395	0.0000000E+000	0.000000000000000E+000	0.000553842
2	0	0	1	0	0	0	550.034	-0.649954	-0.650229	-0.849795	-0.0776175	-0.0776175	12	-0.0215604	0	0.0215604	0.000000000000000E+000	0.0215604	0.0000000E+000	0.000000000000000E+000	0.000552561
2	0	0	1	0	0	0	550.734	-0.649954	-0.650267	-0.853174	-0.0782134	-0.0782134	12	-0.0217259	0	0.0217259	0.000000000000000E+000	0.0217259	0.0000000E+000	0.000000000000000E+000	0.00055479
2	0	0	1	0	0	0	551.434	-0.649954	-0.650267	-0.848821	-0.0788089	-0.0788089	12	-0.0218914	0	0.0218914	0.000000000000000E+000	0.0218914	0.0000000E+000	0.000000000000000E+000	0.00055196
2	0	0	1	0	0	0	552.134	-0.649954	-0.650305	-0.851075	-0.0794051	-0.0794051	12	-0.022057	0	0.022057	0.000000000000000E+000	0.022057	0.0000000E+000	0.000000000000000E+000	0.000553458
2	0	0	1	0	0	0	552.834	-0.649954	-0.650286	-0.853084	-0.0800008	-0.0800008	12	-0.0222224	0	0.0222224	0.000000000000000E+000	0.0222224	0.0000000E+000	0.000000000000000E+000	0.000554748
2	0	0	1	0	0	0	553.534	-0.649954	-0.650362	-0.849635	-0.0805965	-0.0805965	12	-0.0223879	0	0.0223879	0.000000000000000E+000	0.0223879	0.0000000E+000	0.000000000000000E+000	0.000552571
2	0	0	1	0	0	0	554.234	-0.649954	-0.650343	-0.85232	-0.0811925	-0.0811925	12	-0.0225535	0	0.0225535	0.000000000000000E+000	0.0225535	0.0000000E+000	0.000000000000000E+000	0.0005543
2	0	0	1	0	0	0	554.934	-0.649954	-0.650267	-0.849747	-0.0817881	-0.0817881	12	-0.0227189	0	0.0227189	0.000000000000000E+000	0.0227189	0.0000000E+000	0.000000000000000E+000	0.000552562
2	0	0	1	0	0	0	555.634	-0.649954	-0.650229	-0.850516	-0.0823843	-0.0823843	12	-0.0228845	0	0.0228845	0.000000000000000E+000	0.0228845	0.0000000E+000	0.000000000000000E+000	0.00055303
2	0	0	1	0	0	0	556.334	-0.649954	-0.650496	-0.842504	-0.082977	-0.082977	12	-0.0230492	0	0.0230492	0.000000000000000E+000	0.0230492	0.0000000E+000	0.000000000000000E+000	0.000548046
2	0	0	1	0	0	0	557.034	-0.649954	-0.650439	-0.833761	-0.0835645	-0.0835645	12	-0.0232124	0	0.0232124	0.000000000000000E+000	0.0232124	0.0000000E+000	0.000000000000000E+000	0.00054231
2	0	0	1	0	0	0	557.734	-0.649954	-0.650381	-0.830138	-0.0841463	-0.0841463	12	-0.023374	0	0.023374	0.000000000000000E+000	0.023374	0.0000000E+000	0.000000000000000E+000	0.000539906
2	0	0	1	0	0	0	558.434	-0.649954	-0.650324	-0.826161	-0.0847242	-0.0847242	12	-0.0235345	0	0.0235345	0.000000000000000E+000	0.0235345	0.0000000E+000	0.000000000000000E+000	0.000537272
2	0	0	1	0	0	0	559.134	-0.649954	-0.650362	-0.820248	-0.0852993	-0.0852993	12	-0.0236942	0	0.0236942	0.000000000000000E+000	0.0236942	0.0000000E+000	0.000000000000000E+000	0.000533458
2	0	0	1	0	0	0	559.834	-0.649954	-0.650267	-0.81837	-0.0858727	-0.0858727	12	-0.0238535	0	0.0238535	0.000000000000000E+000	0.0238535	0.0000000E+000	0.000000000000000E+000	0.000532159
2	0	0	1	0	0	0	560.534	-0.649954	-0.650171	-0.815497	-0.0864449	-0.0864449	12	-0.0240125	0	0.0240125	0.000000000000000E+000	0.0240125	0.0000000E+000	0.000000000000000E+000	0.000530213
2	0	0	1	0	0	0	561.234	-0.649954	-0.650095	-0.814358	-0.0870164	-0.0870164	12	-0.0241712	0	0.0241712	0.000000000000000E+000	0.0241712	0.0000000E+000	0.000000000000000E+000	0.00052941
2	0	0	1	0	0	0	561.934	-0.649954	-0.650229	-0.815286	-0.0875877	-0.0875877	12	-0.0243299	0	0.0243299	0.000000000000000E+000	0.0243299	0.0000000E+000	0.000000000000000E+000	0.000530122
2	0	0	1	0	0	0	562.634	-0.649954	-0.650286	-0.817431	-0.0881589	-0.0881589	12	-0.0244886	0	0.0244886	0.000000000000000E+000	0.0244886	0.0000000E+000	0.000000000000000E+000	0.000531564
2	0	0	1	0	0	0	563.334	-0.649954	-0.650343	-0.81811	-0.0887299	-0.0887299	12	-0.0246472	0	0.0246472	0.000000000000000E+000	0.0246472	0.0000000E+000	0.000000000000000E+000	0.000532052
2	0	0	1	0	0	0	564.034	-0.649954	-0.650381	-0.815467	-0.0893007	-0.0893007	12	-0.0248058	0	0.0248058	0.000000000000000E+000	0.0248058	0.0000000E+000	0.000000000000000E+000	0.000530365
2	0	0	1	0	0	0	564.734	-0.649954	-0.65042	-0.815731	-0.0898716	-0.0898716	12	-0.0249643	0	0.0249643	0.000000000000000E+000	0.0249643	0.0000000E+000	0.000000000000000E+000	0.000530567
2	0	0	1	0	0	0	565.434	-0.649954	-0.650267	-0.812749	-0.090442	-0.090442	12	-0.0251228	0	0.0251228	0.000000000000000E+000	0.0251228	0.0000000E+000	0.000000000000000E+000	0.000528504
2	0	0	1	0	0	0	566.134	-0.649954	-0.650286	-0.813481	-0.0910124	-0.0910124	12	-0.0252812	0	0.0252812	0.000000000000000E+000	0.0252812	0.0000000E+000	0.000000000000000E+000	0.000528995
2	0	0	1	0	0	0	566.834	-0.649954	-0.650248	-0.813519	-0.0915827	-0.0915827	12	-0.0254396	0	0.0254396	0.000000000000000E+000	0.0254396	0.0000000E+000	0.000000000000000E+000	0.000528989
2	0	0	1	0	0	0	567.534	-0.649954	-0.650267	-0.817154	-0.0921532	-0.0921532	12	-0.0255981	0	0.0255981	0.000000000000000E+000	0.0255981	0.0000000E+000	0.000000000000000E+000	0.000531368
2	0	0	1	0	0	0	568.234	-0.649954	-0.650248	-0.817397	-0.0927236	-0.0927236	12	-0.0257566	0	0.0257566	0.000000000000000E+000	0.0257566	0.0000000E+000	0.000000000000000E+000	0.000531511
2	0	0	1	0	0	0	568.934	-0.649954	-0.650324	-0.814389	-0.0932936	-0.0932936	12	-0.0259149	0	0.0259149	0.000000000000000E+000	0.0259149	0.0000000E+000	0.000000000000000E+000	0.000529617
2	0	0	1	0	0	0	569.634	-0.649954	-0.650324	-0.815023	-0.0938639	-0.0938639	12	-0.0260733	0	0.0260733	0.000000000000000E+000	0.0260733	0.0000000E+000	0.000000000000000E+000	0.000530029
2	0	0	1	0	0	0	570.334	-0.649954	-0.6504	-0.814879	-0.0944343	-0.0944343	12	-0.0262318	0	0.0262318	0.000000000000000E+000	0.0262318	0.0000000E+000	0.000000000000000E+000	0.000529998
2	0	0	1	0	0	0	571.034	-0.649954	-0.650324	-0.827582	-0.09501	-0.09501	12	-0.0263917	0	0.0263917	0.000000000000000E+000	0.0263917	0.0000000E+000	0.000000000000000E+000	0.000538197
2	0	0	1	0	0	0	571.734	-0.649954	-0.650267	-0.836409	-0.0955927	-0.0955927	12	-0.0265535	0	0.0265535	0.000000000000000E+000	0.0265535	0.0000000E+000	0.000000000000000E+000	0.000543889
2	0	0	1	0	0	0	572.434	-0.649954	-0.650343	-0.841621	-0.0961811	-0.0961811	12	-0.026717	0	0.026717	0.000000000000000E+000	0.026717	0.0000000E+000	0.000000000000000E+000	0.000547343
2	0	0	1	0	0	0	573.134	-0.649954	-0.650305	-0.848121	-0.0967723	-0.0967723	12	-0.0268812	0	0.0268812	0.000000000000000E+000	0.0268812	0.0000000E+000	0.000000000000000E+000	0.000551537
2	0	0	1	0	0	0	573.834	-0.649954	-0.650381	-0.845762	-0.0973648	-0.0973648	12	-0.0270458	0	0.0270458	0.000000000000000E+000	0.0270458	0.0000000E+000	0.000000000000000E+000	0.000550068
2	0	0	1	0	0	0	574.534	-0.649954	-0.650305	-0.847776	-0.0979586	-0.0979586	12	-0.0272107	0	0.0272107	0.000000000000000E+000	0.0272107	0.0000000E+000	0.000000000000000E+000	0.000551313
2	0	0	1	0	0	0	575.234	-0.649954	-0.650343	-0.850293	-0.0985522	-0.0985522	12	-0.0273756	0	0.0273756	0.000000000000000E+000	0.0273756	0.0000000E+000	0.000000000000000E+000	0.000552983
2	0	0	1	0	0	0	575.934	-0.649954	-0.65021	-0.847289	-0.0991461	-0.0991461	12	-0.0275406	0	0.0275406	0.000000000000000E+000	0.0275406	0.0000000E+000	0.000000000000000E+000	0.000550915
2	0	0	1	0	0	0	576.634	-0.649954	-0.650324	-0.850922	-0.0997402	-0.0997402	12	-0.0277056	0	0.0277056	0.000000000000000E+000	0.0277056	0.0000000E+000	0.000000000000000E+000	0.000553375
2	0	0	1	0	0	0	577.334	-0.649954	-0.650458	-0.846409	-0.100334	-0.100334	12	-0.0278705	0	0.0278705	0.000000000000000E+000	0.0278705	0.0000000E+000	0.000000000000000E+000	0.000550553
2	0	0	1	0	0	0	578.034	-0.649954	-0.650324	-0.848713	-0.100928	-0.100928	12	-0.0280356	0	0.0280356	0.000000000000000E+000	0.0280356	0.0000000E+000	0.000000000000000E+000	0.000551939
2	0	0	1	0	0	0	578.734	-0.649954	-0.650267	-0.851222	-0.101522	-0.101522	12	-0.0282006	0	0.0282006	0.000000000000000E+000	0.0282006	0.0000000E+000	0.000000000000000E+000	0.000553522
2	0	0	1	0	0	0	579.434	-0.649954	-0.650439	-0.846371	-0.102116	-0.102116	12	-0.0283655	0	0.0283655	0.000000000000000E+000	0.0283655	0.0000000E+000	0.000000000000000E+000	0.000550512
2	0	0	1	0	0	0	580.134	-0.649954	-0.650305	-0.849441	-0.10271	-0.10271	12	-0.0285305	0	0.0285305	0.000000000000000E+000	0.0285305	0.0000000E+000	0.000000000000000E+000	0.000552395
2	0	0	1	0	0	0	580.834	-0.649954	-0.65021	-0.871497	-0.103312	-0.103312	12	-0.0286976	0	0.0286976	0.000000000000000E+000	0.0286976	0.0000000E+000	0.000000000000000E+000	0.000566655
2	0	0	1	0	0	0	581.534	-0.649954	-0.650324	-0.883168	-0.103927	-0.103927	12	-0.0288687	0	0.0288687	0.000000000000000E+000	0.0288687	0.0000000E+000	0.000000000000000E+000	0.000574346
2	0	0	1	0	0	0	582.234	-0.649954	-0.650362	-0.891488	-0.104548	-0.104548	12	-0.0290412	0	0.0290412	0.000000000000000E+000	0.0290412	0.0000000E+000	0.000000000000000E+000	0.00057979
2	0	0	1	0	0	0	582.934	-0.649954	-0.65021	-0.887075	-0.105171	-0.105171	12	-0.0292141	0	0.0292141	0.000000000000000E+000	0.0292141	0.0000000E+000	0.000000000000000E+000	0.000576784
2	0	0	1	0	0	0	583.634	-0.649954	-0.650267	-0.892727	-0.105794	-0.105794	12	-0.0293873	0	0.0293873	0.000000000000000E+000	0.0293873	0.0000000E+000	0.000000000000000E+000	0.000580511
2	0	0	1	0	0	0	584.334	-0.649954	-0.650286	-0.887843	-0.106417	-0.106417	12	-0.0295604	0	0.0295604	0.000000000000000E+000	0.0295604	0.0000000E+000	0.000000000000000E+000	0.000577352
2	0	0	1	0	0	0	585.034	-0.649954	-0.650229	-0.892077	-0.107041	-0.107041	12	-0.0297337	0	0.0297337	0.000000000000000E+000	0.0297337	0.0000000E+000	0.000000000000000E+000	0.000580054
2	0	0	1	0	0	0	585.734	-0.649954	-0.650286	-0.890312	-0.107665	-0.107665	12	-0.0299069	0	0.0299069	0.000000000000000E+000	0.0299069	0.0000000E+000	0.000000000000000E+000	0.000578957
2	0	0	1	0	0	0	586.434	-0.649954	-0.650477	-0.889967	-0.108288	-0.108288	12	-0.0300801	0	0.0300801	0.000000000000000E+000	0.0300801	0.0000000E+000	0.000000000000000E+000	0.000578903
2	0	0	1	0	0	0	587.134	-0.649954	-0.650324	-0.891996	-0.108912	-0.108912	12	-0.0302533	0	0.0302533	0.000000000000000E+000	0.0302533	0.0000000E+000	0.000000000000000E+000	0.000580086
2	0	0	1	0	0	0	587.834	-0.649954	-0.650152	-0.889407	-0.109536	-0.109536	12	-0.0304266	0	0.0304266	0.000000000000000E+000	0.0304266	0.0000000E+000	0.000000000000000E+000	0.00057825
2	0	0	1	0	0	0	588.534	-0.649954	-0.650381	-0.893577	-0.11016	-0.11016	12	-0.0305999	0	0.0305999	0.000000000000000E+000	0.0305999	0.0000000E+000	0.000000000000000E+000	0.000581166
2	0	0	1	0	0	0	589.234	-0.649954	-0.650133	-0.886635	-0.110782	-0.110782	12	-0.0307729	0	0.0307729	0.000000000000000E+000	0.0307729	0.0000000E+000	0.000000000000000E+000	0.000576431
2	0	0	1	0	0	0	589.934	-0.649954	-0.650305	-0.892064	-0.111406	-0.111406	12	-0.030946	0	0.030946	0.000000000000000E+000	0.030946	0.0000000E+000	0.000000000000000E+000	0.000580114
2	0	0	1	0	0	0	590.634	-0.649954	-0.650343	-0.888585	-0.112029	-0.112029	12	-0.0311191	0	0.0311191	0.000000000000000E+000	0.0311191	0.0000000E+000	0.000000000000000E+000	0.000577885
2	0	0	1	0	0	0	591.334	-0.649954	-0.650286	-0.890988	-0.112652	-0.112652	12	-0.0312923	0	0.0312923	0.000000000000000E+000	0.0312923	0.0000000E+000	0.000000000000000E+000	0.000579397
2	0	0	1	0	0	0	592.034	-0.649954	-0.650267	-0.889678	-0.113275	-0.113275	12	-0.0314653	0	0.0314653	0.000000000000000E+000	0.0314653	0.0000000E+000	0.000000000000000E+000	0.000578528
2	0	0	1	0	0	0	592.734	-0.649954	-0.6504	-0.889504	-0.113898	-0.113898	12	-0.0316384	0	0.0316384	0.000000000000000E+000	0.0316384	0.0000000E+000	0.000000000000000E+000	0.000578534
2	0	0	1	0	0	0	593.434	-0.649954	-0.650305	-0.892054	-0.114522	-0.114522	12	-0.0318115	0	0.0318115	0.000000000000000E+000	0.0318115	0.0000000E+000	0.000000000000000E+000	0.000580107
2	0	0	1	0	0	0	594.134	-0.649954	-0.650362	-0.901954	-0.115147	-0.115147	12	-0.0319851	0	0.0319851	0.000000000000000E+000	0.0319851	0.0000000E+000	0.000000000000000E+000	0.000586597
2	0	0	1	0	0	0	594.834	-0.649954	-0.650515	-0.918217	-0.115784	-0.115784	12	-0.0321622	0	0.0321622	0.000000000000000E+000	0.0321622	0.0000000E+000	0.000000000000000E+000	0.000597314
2	0	0	1	0	0	0	595.534	-0.649954	-0.65021	-0.92148	-0.116428	-0.116428	12	-0.0323411	0	0.0323411	0.000000000000000E+000	0.0323411	0.0000000E+000	0.000000000000000E+000	0.000599155
2	0	0	1	0	0	0	596.234	-0.649954	-0.650477	-0.921172	-0.117073	-0.117073	12	-0.0325204	0	0.0325204	0.000000000000000E+000	0.0325204	0.0000000E+000	0.000000000000000E+000	0.000599201
2	0	0	1	0	0	0	596.934	-0.649954	-0.650534	-0.920977	-0.11772	-0.11772	12	-0.0326999	0	0.0326999	0.000000000000000E+000	0.0326999	0.0000000E+000	0.000000000000000E+000	0.000599127
2	0	0	1	0	0	0	597.634	-0.649954	-0.65063	-0.923295	-0.118366	-0.118366	12	-0.0328795	0	0.0328795	0.000000000000000E+000	0.0328795	0.0000000E+000	0.000000000000000E+000	0.000600723
2	0	0	1	0	0	0	598.334	-0.649954	-0.650362	-0.924432	-0.119012	-0.119012	12	-0.033059	0	0.033059	0.000000000000000E+000	0.033059	0.0000000E+000	0.000000000000000E+000	0.000601216
2	0	0	1	0	0	0	599.034	-0.649954	-0.6504	-0.925988	-0.119659	-0.119659	12	-0.0332386	0	0.0332386	0.000000000000000E+000	0.0332386	0.0000000E+000	0.000000000000000E+000	0.000602263
2	0	0	1	0	0	0	599.734	-0.649954	-0.650229	-0.923672	-0.120305	-0.120305	12	-0.0334181	0	0.0334181	0.000000000000000E+000	0.0334181	0.0000000E+000	0.000000000000000E+000	0.000600598
2	0	0	1	0	0	0	600.434	-0.649954	-0.650248	-0.921364	-0.12095	-0.12095	12	-0.0335973	0	0.0335973	0.000000000000000E+000	0.0335973	0.0000000E+000	0.000000000000000E+000	0.000599115
2	0	0	1	0	0	0	601.134	-0.649954	-0.650458	-0.919969	-0.121595	-0.121595	12	-0.0337765	0	0.0337765	0.000000000000000E+000	0.0337765	0.0000000E+000	0.000000000000000E+000	0.000598401
2	0	0	1	0	0	0	601.834	-0.649954	-0.650381	-0.91852	-0.12224	-0.12224	12	-0.0339556	0	0.0339556	0.000000000000000E+000	0.0339556	0.0000000E+000	0.000000000000000E+000	0.000597388
2	0	0	1	0	0	0	602.534	-0.649954	-0.650477	-0.921236	-0.122885	-0.122885	12	-0.0341348	0	0.0341348	0.000000000000000E+000	0.0341348	0.0000000E+000	0.000000000000000E+000	0.000599243
2	0	0	1	0	0	0	603.234	-0.649954	-0.650362	-0.922717	-0.12353	-0.12353	12	-0.0343139	0	0.0343139	0.000000000000000E+000	0.0343139	0.0000000E+000	0.000000000000000E+000	0.000600101
2	0	0	1	0	0	0	603.934	-0.649954	-0.65021	-0.922292	-0.124174	-0.124174	12	-0.0344928	0	0.0344928	0.000000000000000E+000	0.0344928	0.0000000E+000	0.000000000000000E+000	0.000599683
2	0	0	1	0	0	0	604.634	-0.649954	-0.65042	-0.921668	-0.124818	-0.124818	12	-0.0346718	0	0.0346718	0.000000000000000E+000	0.0346718	0.0000000E+000	0.000000000000000E+000	0.000599471
2	0	0	1	0	0	0	605.334	-0.649954	-0.650248	-0.918687	-0.125463	-0.125463	12	-0.0348507	0	0.0348507	0.000000000000000E+000	0.0348507	0.0000000E+000	0.000000000000000E+000	0.000597374
2	0	0	1	0	0	0	606.034	-0.649954	-0.650286	-0.916502	-0.126106	-0.126106	12	-0.0350295	0	0.0350295	0.000000000000000E+000	0.0350295	0.0000000E+000	0.000000000000000E+000	0.000595989
2	0	0	1	0	0	0	606.734	-0.649954	-0.650305	-0.93175	-0.126752	-0.126752	12	-0.0352089	0	0.0352089	0.000000000000000E+000	0.0352089	0.0000000E+000	0.000000000000000E+000	0.000605922
2	0	0	1	0	0	0	607.434	-0.649954	-0.650286	-0.960596	-0.127418	-0.127418	12	-0.035394	0	0.035394	0.000000000000000E+000	0.035394	0.0000000E+000	0.000000000000000E+000	0.000624662
2	0	0	1	0	0	0	608.134	-0.649954	-0.650229	-0.964287	-0.128093	-0.128093	12	-0.0355813	0	0.0355813	0.000000000000000E+000	0.0355813	0.0000000E+000	0.000000000000000E+000	0.000627007
2	0	0	1	0	0	0	608.834	-0.649954	-0.650381	-0.964797	-0.128768	-0.128768	12	-0.0357688	0	0.0357688	0.000000000000000E+000	0.0357688	0.0000000E+000	0.000000000000000E+000	0.000627486
2	0	0	1	0	0	0	609.534	-0.649954	-0.650439	-0.965044	-0.129443	-0.129443	12	-0.0359564	0	0.0359564	0.000000000000000E+000	0.0359564	0.0000000E+000	0.000000000000000E+000	0.000627702
2	0	0	1	0	0	0	610.234	-0.649954	-0.650362	-0.965354	-0.130119	-0.130119	12	-0.0361441	0	0.0361441	0.000000000000000E+000	0.0361441	0.0000000E+000	0.000000000000000E+000	0.00062783
2	0	0	1	0	0	0	610.934	-0.649954	-0.650343	-0.964894	-0.130794	-0.130794	12	-0.0363317	0	0.0363317	0.000000000000000E+000	0.0363317	0.0000000E+000	0.000000000000000E+000	0.000627512
2	0	0	1	0	0	0	611.634	-0.649954	-0.65021	-0.964487	-0.13147	-0.13147	12	-0.0365194	0	0.0365194	0.000000000000000E+000	0.0365194	0.0000000E+000	0.000000000000000E+000	0.000627118
2	0	0	1	0	0	0	612.334	-0.649954	-0.650458	-0.96415	-0.132145	-0.132145	12	-0.0367068	0	0.0367068	0.000000000000000E+000	0.0367068	0.0000000E+000	0.000000000000000E+000	0.000627139
2	0	0	1	0	0	0	613.034	-0.649954	-0.650286	-0.96319	-0.132819	-0.132819	12	-0.0368941	0	0.0368941	0.000000000000000E+000	0.0368941	0.0000000E+000	0.000000000000000E+000	0.000626349
2	0	0	1	0	0	0	613.734	-0.649954	-0.650343	-0.963542	-0.133493	-0.133493	12	-0.0370815	0	0.0370815	0.000000000000000E+000	0.0370815	0.0000000E+000	0.000000000000000E+000	0.000626633
2	0	0	1	0	0	0	614.434	-0.649954	-0.650286	-0.963274	-0.134168	-0.134168	12	-0.0372689	0	0.0372689	0.000000000000000E+000	0.0372689	0.0000000E+000	0.000000000000000E+000	0.000626404
2	0	0	1	0	0	0	615.134	-0.649954	-0.650362	-0.96319	-0.134842	-0.134842	12	-0.0374562	0	0.0374562	0.000000000000000E+000	0.0374562	0.0000000E+000	0.000000000000000E+000	0.000626422
2	0	0	1	0	0	0	615.834	-0.649954	-0.650324	-0.963361	-0.135516	-0.135516	12	-0.0376434	0	0.0376434	0.000000000000000E+000	0.0376434	0.0000000E+000	0.000000000000000E+000	0.000626497
2	0	0	1	0	0	0	616.534	-0.649954	-0.650458	-0.962826	-0.136191	-0.136191	12	-0.0378307	0	0.0378307	0.000000000000000E+000	0.0378307	0.0000000E+000	0.000000000000000E+000	0.000626278
2	0	0	1	0	0	0	617.234	-0.649954	-0.65021	-0.962968	-0.136865	-0.136865	12	-0.038018	0	0.038018	0.000000000000000E+000	0.038018	0.0000000E+000	0.000000000000000E+000	0.000626131
2	0	0	1	0	0	0	617.934	-0.649954	-0.650324	-0.962837	-0.137539	-0.137539	12	-0.0382052	0	0.0382052	0.000000000000000E+000	0.0382052	0.0000000E+000	0.000000000000000E+000	0.000626156
2	0	0	1	0	0	0	618.634	-0.649954	-0.650267	-0.962615	-0.138213	-0.138213	12	-0.0383925	0	0.0383925	0.000000000000000E+000	0.0383925	0.0000000E+000	0.000000000000000E+000	0.000625957
2	0	0	1	0	0	0	619.334	-0.649954	-0.650248	-0.96218	-0.138886	-0.138886	12	-0.0385795	0	0.0385795	0.000000000000000E+000	0.0385795	0.0000000E+000	0.000000000000000E+000	0.000625656
2	0	0	1	0	0	0	620.034	-0.649954	-0.6504	-0.961772	-0.13956	-0.13956	12	-0.0387665	0	0.0387665	0.000000000000000E+000	0.0387665	0.0000000E+000	0.000000000000000E+000	0.000625537
2	0	0	1	0	0	0	620.734	-0.649954	-0.650343	-0.961216	-0.140233	-0.140233	12	-0.0389535	0	0.0389535	0.000000000000000E+000	0.0389535	0.0000000E+000	0.000000000000000E+000	0.00062512
2	0	0	1	0	0	0	621.434	-0.649954	-0.650267	-0.961191	-0.140905	-0.140905	12	-0.0391404	0	0.0391404	0.000000000000000E+000	0.0391404	0.0000000E+000	0.000000000000000E+000	0.000625031
2	0	0	1	0	0	0	622.134	-0.649954	-0.650515	-0.961088	-0.141578	-0.141578	12	-0.0393273	0	0.0393273	0.000000000000000E+000	0.0393273	0.0000000E+000	0.000000000000000E+000	0.000625202
2	0	0	1	0	0	0	622.834	-0.649954	-0.650267	-0.96015	-0.142251	-0.142251	12	-0.0395141	0	0.0395141	0.000000000000000E+000	0.0395141	0.0000000E+000	0.000000000000000E+000	0.000624354
2	0	0	1	0	0	0	623.534	-0.649954	-0.650343	-0.960101	-0.142923	-0.142923	12	-0.0397007	0	0.0397007	0.000000000000000E+000	0.0397007	0.0000000E+000	0.000000000000000E+000	0.000624395
2	0	0	1	0	0	0	624.234	-0.649954	-0.650248	-0.959911	-0.143594	-0.143594	12	-0.0398873	0	0.0398873	0.000000000000000E+000	0.0398873	0.0000000E+000	0.000000000000000E+000	0.00062418
2	0	0	1	0	0	0	624.934	-0.649954	-0.650381	-0.960123	-0.144266	-0.144266	12	-0.040074	0	0.040074	0.000000000000000E+000	0.040074	0.0000000E+000	0.000000000000000E+000	0.000624446
2	0	0	1	0	0	0	625.634	-0.649954	-0.6504	-0.959444	-0.144938	-0.144938	12	-0.0402606	0	0.0402606	0.000000000000000E+000	0.0402606	0.0000000E+000	0.000000000000000E+000	0.000624023
2	0	0	1	0	0	0	626.334	-0.649954	-0.650305	-0.963293	-0.14561	-0.14561	12	-0.0404472	0	0.0404472	0.000000000000000E+000	0.0404472	0.0000000E+000	0.000000000000000E+000	0.000626434
2	0	0	1	0	0	0	627.034	-0.649954	-0.650324	-0.980461	-0.146291	-0.146291	12	-0.0406364	0	0.0406364	0.000000000000000E+000	0.0406364	0.0000000E+000	0.000000000000000E+000	0.000637617
2	0	0	1	0	0	0	627.734	-0.649954	-0.6504	-0.982994	-0.146979	-0.146979	12	-0.0408274	0	0.0408274	0.000000000000000E+000	0.0408274	0.0000000E+000	0.000000000000000E+000	0.00063934
2	0	0	1	0	0	0	628.434	-0.649954	-0.650171	-0.981009	-0.147666	-0.147666	12	-0.0410183	0	0.0410183	0.000000000000000E+000	0.0410183	0.0000000E+000	0.000000000000000E+000	0.000637824
2	0	0	1	0	0	0	629.134	-0.649954	-0.65019	-0.982137	-0.148353	-0.148353	12	-0.0412092	0	0.0412092	0.000000000000000E+000	0.0412092	0.0000000E+000	0.000000000000000E+000	0.000638576
2	0	0	1	0	0	0	629.834	-0.649954	-0.650286	-0.979391	-0.14904	-0.14904	12	-0.0413999	0	0.0413999	0.000000000000000E+000	0.0413999	0.0000000E+000	0.000000000000000E+000	0.000636884
2	0	0	1	0	0	0	630.534	-0.649954	-0.650229	-0.981114	-0.149726	-0.149726	12	-0.0415906	0	0.0415906	0.000000000000000E+000	0.0415906	0.0000000E+000	0.000000000000000E+000	0.000637948
2	0	0	1	0	0	0	631.234	-0.649954	-0.650229	-0.978927	-0.150412	-0.150412	12	-0.041781	0	0.041781	0.000000000000000E+000	0.041781	0.0000000E+000	0.000000000000000E+000	0.000636526
2	0	0	1	0	0	0	631.934	-0.649954	-0.65019	-0.978681	-0.151097	-0.151097	12	-0.0419714	0	0.0419714	0.000000000000000E+000	0.0419714	0.0000000E+000	0.000000000000000E+000	0.000636329
2	0	0	1	0	0	0	632.634	-0.649954	-0.650343	-0.97885	-0.151782	-0.151782	12	-0.0421617	0	0.0421617	0.000000000000000E+000	0.0421617	0.0000000E+000	0.000000000000000E+000	0.000636588
2	0	0	1	0	0	0	633.334	-0.649954	-0.650305	-0.977832	-0.152467	-0.152467	12	-0.0423519	0	0.0423519	0.000000000000000E+000	0.0423519	0.0000000E+000	0.000000000000000E+000	0.000635889
2	0	0	1	0	0	0	634.034	-0.649954	-0.650286	-0.977854	-0.153151	-0.153151	12	-0.0425419	0	0.0425419	0.000000000000000E+000	0.0425419	0.0000000E+000	0.000000000000000E+000	0.000635885
2	0	0	1	0	0	0	634.734	-0.649954	-0.650305	-0.976639	-0.153835	-0.153835	12	-0.0427319	0	0.0427319	0.000000000000000E+000	0.0427319	0.0000000E+000	0.000000000000000E+000	0.000635113
2	0	0	1	0	0	0	635.434	-0.649954	-0.650381	-0.977156	-0.154518	-0.154518	12	-0.0429218	0	0.0429218	0.000000000000000E+000	0.0429218	0.0000000E+000	0.000000000000000E+000	0.000635524
2	0	0	1	0	0	0	636.134	-0.649954	-0.650324	-0.974613	-0.155202	-0.155202	12	-0.0431116	0	0.0431116	0.000000000000000E+000	0.0431116	0.0000000E+000	0.000000000000000E+000	0.000633814
2	0	0	1	0	0	0	636.834	-0.649954	-0.650324	-0.976427	-0.155885	-0.155885	12	-0.0433013	0	0.0433013	0.000000000000000E+000	0.0433013	0.0000000E+000	0.000000000000000E+000	0.000634994
2	0	0	1	0	0	0	637.534	-0.649954	-0.650362	-0.974163	-0.156567	-0.156567	12	-0.0434909	0	0.0434909	0.000000000000000E+000	0.0434909	0.0000000E+000	0.000000000000000E+000	0.000633559
2	0	0	1	0	0	0	638.234	-0.649954	-0.650534	-0.975259	-0.157249	-0.157249	12	-0.0436804	0	0.0436804	0.000000000000000E+000	0.0436804	0.0000000E+000	0.000000000000000E+000	0.000634439
2	0	0	1	0	0	0	638.934	-0.649954	-0.650324	-0.973846	-0.157931	-0.157931	12	-0.0438698	0	0.0438698	0.000000000000000E+000	0.0438698	0.0000000E+000	0.000000000000000E+000	0.000633316
2	0	0	1	0	0	0	639.634	-0.649954	-0.650458	-0.973615	-0.158613	-0.158613	12	-0.044059	0	0.044059	0.000000000000000E+000	0.044059	0.0000000E+000	0.000000000000000E+000	0.000633295
2	0	0	1	0	0	0	640.334	-0.649954	-0.650267	-0.973195	-0.159294	-0.159294	12	-0.0442482	0	0.0442482	0.000000000000000E+000	0.0442482	0.0000000E+000	0.000000000000000E+000	0.000632837
2	0	0	1	0	0	0	641.034	-0.649954	-0.650305	-1.01188	-0.159991	-0.159991	12	-0.044442	0	0.044442	0.000000000000000E+000	0.044442	0.0000000E+000	0.000000000000000E+000	0.00065803
2	0	0	1	0	0	0	641.734	-0.649954	-0.650229	-1.00854	-0.160699	-0.160699	12	-0.0446385	0	0.0446385	0.000000000000000E+000	0.0446385	0.0000000E+000	0.000000000000000E+000	0.000655783
2	0	0	1	0	0	0	642.434	-0.649954	-0.650286	-1.00489	-0.161403	-0.161403	12	-0.0448341	0	0.0448341	0.000000000000000E+000	0.0448341	0.0000000E+000	0.000000000000000E+000	0.000653465
2	0	0	1	0	0	0	643.134	-0.649954	-0.650248	-1.00492	-0.162107	-0.162107	12	-0.0450296	0	0.0450296	0.000000000000000E+000	0.0450296	0.0000000E+000	0.000000000000000E+000	0.000653446
2	0	0	1	0	0	0	643.834	-0.649954	-0.650267	-1.00414	-0.16281	-0.16281	12	-0.045225	0	0.045225	0.000000000000000E+000	0.045225	0.0000000E+000	0.000000000000000E+000	0.000652957
2	0	0	1	0	0	0	644.534	-0.649954	-0.650248	-1.00343	-0.163513	-0.163513	12	-0.0454201	0	0.0454201	0.000000000000000E+000	0.0454201	0.0000000E+000	0.000000000000000E+000	0.000652477
2	0	0	1	0	0	0	645.234	-0.649954	-0.650038	-1.00335	-0.164215	-0.164215	12	-0.0456153	0	0.0456153	0.000000000000000E+000	0.0456153	0.0000000E+000	0.000000000000000E+000	0.000652214
2	0	0	1	0	0	0	645.934	-0.649954	-0.650248	-1.00245	-0.164917	-0.164917	12	-0.0458103	0	0.0458103	0.000000000000000E+000	0.0458103	0.0000000E+000	0.000000000000000E+000	0.00065184
2	0	0	1	0	0	0	646.634	-0.649954	-0.650362	-1.00117	-0.165619	-0.165619	12	-0.0460052	0	0.0460052	0.000000000000000E+000	0.0460052	0.0000000E+000	0.000000000000000E+000	0.000651125
2	0	0	1	0	0	0	647.334	-0.649954	-0.650248	-1.00079	-0.166319	-0.166319	12	-0.0461998	0	0.0461998	0.000000000000000E+000	0.0461998	0.0000000E+000	0.000000000000000E+000	0.000650763
2	0	0	1	0	0	0	648.034	-0.649954	-0.65042	-1.00028	-0.167019	-0.167019	12	-0.0463943	0	0.0463943	0.000000000000000E+000	0.0463943	0.0000000E+000	0.000000000000000E+000	0.000650601
2	0	0	1	0	0	0	648.734	-0.649954	-0.650152	-0.998395	-0.167719	-0.167719	12	-0.0465886	0	0.0465886	0.000000000000000E+000	0.0465886	0.0000000E+000	0.000000000000000E+000	0.000649109
2	0	0	1	0	0	0	649.434	-0.649954	-0.650324	-0.998519	-0.168418	-0.168418	12	-0.0467828	0	0.0467828	0.000000000000000E+000	0.0467828	0.0000000E+000	0.000000000000000E+000	0.000649361
2	0	0	1	0	0	0	650.134	-0.649954	-0.650229	-0.999114	-0.169117	-0.169117	12	-0.046977	0	0.046977	0.000000000000000E+000	0.046977	0.0000000E+000	0.000000000000000E+000	0.000649652
2	0	0	1	0	0	0	650.834	-0.649954	-0.650305	-0.997815	-0.169816	-0.169816	12	-0.047171	0	0.047171	0.000000000000000E+000	0.047171	0.0000000E+000	0.000000000000000E+000	0.000648884
2	0	0	1	0	0	0	651.534	-0.649954	-0.6504	-0.997174	-0.170514	-0.170514	12	-0.047365	0	0.047365	0.000000000000000E+000	0.047365	0.0000000E+000	0.000000000000000E+000	0.000648562
2	0	0	1	0	0	0	652.234	-0.649954	-0.650267	-0.997233	-0.171212	-0.171212	12	-0.0475588	0	0.0475588	0.000000000000000E+000	0.0475588	0.0000000E+000	0.000000000000000E+000	0.000648467
2	0	0	1	0	0	0	652.934	-0.649954	-0.650305	-0.995611	-0.171909	-0.171909	12	-0.0477525	0	0.0477525	0.000000000000000E+000	0.0477525	0.0000000E+000	0.000000000000000E+000	0.000647451
2	0	0	1	0	0	0	653.634	-0.649954	-0.650381	-0.994928	-0.172606	-0.172606	12	-0.0479461	0	0.0479461	0.000000000000000E+000	0.0479461	0.0000000E+000	0.000000000000000E+000	0.000647083
2	0	0	1	0	0	0	654.334	-0.649954	-0.650019	-0.994844	-0.173302	-0.173302	12	-0.0481396	0	0.0481396	0.000000000000000E+000	0.0481396	0.0000000E+000	0.000000000000000E+000	0.000646667
2	0	0	1	0	0	0	655.034	-0.649954	-0.650152	-0.994062	-0.173998	-0.173998	12	-0.0483328	0	0.0483328	0.000000000000000E+000	0.0483328	0.0000000E+000	0.000000000000000E+000	0.000646292
2	0	0	1	0	0	0	655.232	-0.649954	-0.650343	-0.994486	-0.174195	-0.174195	12	-0.0483874	0	0.0483874	0.000000000000000E+000	0.0483874	0.0000000E+000	0.000000000000000E+000	0.000646757