File: ZnPVAECH_07 RDE 2 ECH 1600 rpm K-L.mpt
EC-Lab ASCII FILE
Nb header lines : 63

Chronoamperometry / Chronocoulometry

Run on channel : 5 (SN 6729)
User :
CE vs. WE compliance from -10 V to 10 V
Electrode connection : standard
Potential control : Ewe
Ewe ctrl range : min = -2.50 V, max = 2.50 V
Safety Limits :
	Do not start on E overload
Acquisition started on : 04/04/2022 13:39:42.231
Technique started on : 04/04/2022 13:39:47.379
Loaded Setting File :  NONE
Saved on :
	File : 04-22-22-Zn PVA ECH 1600 rpm K-L RDE2_02_CA_C05.mpr
	Directory : \\research-scb.egr.msu.edu\research-scb\Mindy\Koutecky Levich\Zn PVA\ECH\04-04-22\
	Host : 35.9.136.210
Device : VSP (SN 0012)
Address : 35.9.137.65
EC-Lab for windows v11.43 (software)
Internet server v11.40 (firmware)
Command interpretor v11.40 (firmware)
Electrode material : Au/Pd
Initial state :
Electrolyte : NaCl (0.2M)
Comments : Fe(CN)63-/Fe(CN)64- 5.10-3 M
Reference electrode : SCE Saturated Calomel Electrode (0.241 V)
Electrode surface area : 0.196 cm²
Characteristic mass : 0.001 g
Equivalent Weight : 0.000 g/eq.
Density : 0.000 g/cm3
Volume (V) : 0.001 cm³
Cycle Definition : Charge/Discharge alternance
Ei (V)              -1.000
vs.                 Ref
ti (h:m:s)          0:10:0.0000
Imax                pass
unit Imax           mA
Imin                pass
unit Imin           mA
dQM                 0.000
unit dQM            mA.h
record              <I>
dI                  5.000
unit dI             µA
dQ                  0.000
unit dQ             mA.h
dt (s)              0.1000
dta (s)             0.1000
E range min (V)     -2.500
E range max (V)     2.500
I Range             Auto
I Range min         Unset
I Range max         Unset
I Range init        Unset
Bandwidth           5
goto Ns'            0
nc cycles           0

mode	ox/red	error	control changes	Ns changes	counter inc.	Ns	time/s	control/V	Ewe/V	<I>/mA	dQ/C	(Q-Qo)/C	I Range	Q charge/discharge/mA.h	half cycle	Q discharge/mA.h	Q charge/mA.h	Capacity/mA.h	Efficiency/%	cycle number	P/W
2	0	0	0	0	0	0	5.1484	-1.00001	-1.00048	-5.28568	-0.000126588	-0.000126588	11	-3.51635e-05	0	3.51635e-05	0.000000000000000E+000	3.51635e-05	0.0000000E+000	0.000000000000000E+000	0.0052882
2	0	0	0	0	0	0	5.9484	-1.00001	-1.00038	-2.1156	-0.00248117	-0.00248117	11	-0.000689213	0	0.000689213	0.000000000000000E+000	0.000689213	0.0000000E+000	0.000000000000000E+000	0.00211641
2	0	0	0	0	0	0	6.7484	-1.00001	-1.00042	-1.786	-0.00399406	-0.00399406	11	-0.00110946	0	0.00110946	0.000000000000000E+000	0.00110946	0.0000000E+000	0.000000000000000E+000	0.00178675
2	0	0	0	0	0	0	7.5484	-1.00001	-1.00042	-1.69125	-0.00537454	-0.00537454	11	-0.00149293	0	0.00149293	0.000000000000000E+000	0.00149293	0.0000000E+000	0.000000000000000E+000	0.00169196
2	0	0	0	0	0	0	8.3484	-1.00001	-1.00036	-1.66073	-0.0067117	-0.0067117	11	-0.00186436	0	0.00186436	0.000000000000000E+000	0.00186436	0.0000000E+000	0.000000000000000E+000	0.00166133
2	0	0	0	0	0	0	9.1484	-1.00001	-1.00038	-1.63772	-0.00802977	-0.00802977	11	-0.00223049	0	0.00223049	0.000000000000000E+000	0.00223049	0.0000000E+000	0.000000000000000E+000	0.00163835
2	0	0	0	0	0	0	9.9484	-1.00001	-1.00048	-1.62585	-0.0093335	-0.0093335	11	-0.00259264	0	0.00259264	0.000000000000000E+000	0.00259264	0.0000000E+000	0.000000000000000E+000	0.00162662
2	0	0	0	0	0	0	10.7484	-1.00001	-1.0004	-1.61235	-0.0106269	-0.0106269	11	-0.0029519	0	0.0029519	0.000000000000000E+000	0.0029519	0.0000000E+000	0.000000000000000E+000	0.001613
2	0	0	0	0	0	0	11.5484	-1.00001	-1.00034	-1.59907	-0.0119134	-0.0119134	11	-0.00330927	0	0.00330927	0.000000000000000E+000	0.00330927	0.0000000E+000	0.000000000000000E+000	0.00159962
2	0	0	0	0	0	0	12.3484	-1.00001	-1.00044	-1.59548	-0.0131875	-0.0131875	11	-0.00366318	0	0.00366318	0.000000000000000E+000	0.00366318	0.0000000E+000	0.000000000000000E+000	0.00159618
2	0	0	0	0	0	0	13.1484	-1.00001	-1.00044	-1.60488	-0.0144704	-0.0144704	11	-0.00401955	0	0.00401955	0.000000000000000E+000	0.00401955	0.0000000E+000	0.000000000000000E+000	0.00160559
2	0	0	0	0	0	0	13.9484	-1.00001	-1.00031	-1.60786	-0.0157555	-0.0157555	11	-0.00437653	0	0.00437653	0.000000000000000E+000	0.00437653	0.0000000E+000	0.000000000000000E+000	0.00160835
2	0	0	0	0	0	0	14.7484	-1.00001	-1.0004	-1.60666	-0.0170401	-0.0170401	11	-0.00473337	0	0.00473337	0.000000000000000E+000	0.00473337	0.0000000E+000	0.000000000000000E+000	0.00160731
2	0	0	0	0	0	0	15.5484	-1.00001	-1.00046	-1.60932	-0.0183279	-0.0183279	11	-0.00509107	0	0.00509107	0.000000000000000E+000	0.00509107	0.0000000E+000	0.000000000000000E+000	0.00161006
2	0	0	0	0	0	0	16.3484	-1.00001	-1.00034	-1.60841	-0.0196143	-0.0196143	11	-0.00544841	0	0.00544841	0.000000000000000E+000	0.00544841	0.0000000E+000	0.000000000000000E+000	0.00160896
2	0	0	0	0	0	0	17.1484	-1.00001	-1.00034	-1.60602	-0.0209007	-0.0209007	11	-0.00580576	0	0.00580576	0.000000000000000E+000	0.00580576	0.0000000E+000	0.000000000000000E+000	0.00160657
2	0	0	0	0	0	0	17.9484	-1.00001	-1.00055	-1.60674	-0.0221845	-0.0221845	11	-0.00616237	0	0.00616237	0.000000000000000E+000	0.00616237	0.0000000E+000	0.000000000000000E+000	0.00160763
2	0	0	0	0	0	0	18.7484	-1.00001	-1.0004	-1.61977	-0.0234764	-0.0234764	11	-0.00652123	0	0.00652123	0.000000000000000E+000	0.00652123	0.0000000E+000	0.000000000000000E+000	0.00162042
2	0	0	0	0	0	0	19.5484	-1.00001	-1.00044	-1.6164	-0.0247713	-0.0247713	11	-0.00688091	0	0.00688091	0.000000000000000E+000	0.00688091	0.0000000E+000	0.000000000000000E+000	0.0016171
2	0	0	0	0	0	0	20.3484	-1.00001	-1.00038	-1.61062	-0.0260605	-0.0260605	11	-0.00723904	0	0.00723904	0.000000000000000E+000	0.00723904	0.0000000E+000	0.000000000000000E+000	0.00161123
2	0	0	0	0	0	0	21.1484	-1.00001	-1.00031	-1.60697	-0.0273479	-0.0273479	11	-0.00759663	0	0.00759663	0.000000000000000E+000	0.00759663	0.0000000E+000	0.000000000000000E+000	0.00160746
2	0	0	0	0	0	0	21.9484	-1.00001	-1.00055	-1.60367	-0.0286315	-0.0286315	11	-0.0079532	0	0.0079532	0.000000000000000E+000	0.0079532	0.0000000E+000	0.000000000000000E+000	0.00160456
2	0	0	0	0	0	0	22.7484	-1.00001	-1.00042	-1.60444	-0.0299152	-0.0299152	11	-0.00830977	0	0.00830977	0.000000000000000E+000	0.00830977	0.0000000E+000	0.000000000000000E+000	0.00160511
2	0	0	0	0	0	0	23.5484	-1.00001	-1.00055	-1.60357	-0.0311983	-0.0311983	11	-0.0086662	0	0.0086662	0.000000000000000E+000	0.0086662	0.0000000E+000	0.000000000000000E+000	0.00160445
2	0	0	0	0	0	0	24.3484	-1.00001	-1.00021	-1.6066	-0.0324824	-0.0324824	11	-0.00902289	0	0.00902289	0.000000000000000E+000	0.00902289	0.0000000E+000	0.000000000000000E+000	0.00160693
2	0	0	0	0	0	0	25.1484	-1.00001	-1.00029	-1.61722	-0.0337716	-0.0337716	11	-0.00938101	0	0.00938101	0.000000000000000E+000	0.00938101	0.0000000E+000	0.000000000000000E+000	0.00161768
2	0	0	0	0	0	0	25.9484	-1.00001	-1.00042	-1.61195	-0.0350633	-0.0350633	11	-0.0097398	0	0.0097398	0.000000000000000E+000	0.0097398	0.0000000E+000	0.000000000000000E+000	0.00161262
2	0	0	0	0	0	0	26.7484	-1.00001	-1.00038	-1.60603	-0.03635	-0.03635	11	-0.0100972	0	0.0100972	0.000000000000000E+000	0.0100972	0.0000000E+000	0.000000000000000E+000	0.00160664
2	0	0	0	0	0	0	27.5484	-1.00001	-1.0005	-1.60472	-0.0376342	-0.0376342	11	-0.0104539	0	0.0104539	0.000000000000000E+000	0.0104539	0.0000000E+000	0.000000000000000E+000	0.00160551
2	0	0	0	0	0	0	28.3484	-1.00001	-1.00029	-1.60782	-0.0389189	-0.0389189	11	-0.0108108	0	0.0108108	0.000000000000000E+000	0.0108108	0.0000000E+000	0.000000000000000E+000	0.00160828
2	0	0	0	0	0	0	29.1484	-1.00001	-1.0001	-1.60636	-0.0402047	-0.0402047	11	-0.011168	0	0.011168	0.000000000000000E+000	0.011168	0.0000000E+000	0.000000000000000E+000	0.00160651
2	0	0	0	0	0	0	29.9484	-1.00001	-1.00032	-1.61751	-0.0414922	-0.0414922	11	-0.0115256	0	0.0115256	0.000000000000000E+000	0.0115256	0.0000000E+000	0.000000000000000E+000	0.00161804
2	0	0	0	0	0	0	30.7484	-1.00001	-1.0004	-1.62168	-0.0427893	-0.0427893	11	-0.0118859	0	0.0118859	0.000000000000000E+000	0.0118859	0.0000000E+000	0.000000000000000E+000	0.00162233
2	0	0	0	0	0	0	31.5484	-1.00001	-1.00025	-1.61534	-0.0440838	-0.0440838	11	-0.0122455	0	0.0122455	0.000000000000000E+000	0.0122455	0.0000000E+000	0.000000000000000E+000	0.00161574
2	0	0	0	0	0	0	32.3484	-1.00001	-1.00034	-1.61342	-0.0453756	-0.0453756	11	-0.0126043	0	0.0126043	0.000000000000000E+000	0.0126043	0.0000000E+000	0.000000000000000E+000	0.00161397
2	0	0	0	0	0	0	33.1484	-1.00001	-1.00032	-1.61467	-0.0466664	-0.0466664	11	-0.0129629	0	0.0129629	0.000000000000000E+000	0.0129629	0.0000000E+000	0.000000000000000E+000	0.0016152
2	0	0	0	0	0	0	33.9484	-1.00001	-1.00027	-1.60886	-0.0479564	-0.0479564	11	-0.0133212	0	0.0133212	0.000000000000000E+000	0.0133212	0.0000000E+000	0.000000000000000E+000	0.00160929
2	0	0	0	0	0	0	34.7484	-1.00001	-1.00034	-1.61052	-0.0492438	-0.0492438	11	-0.0136788	0	0.0136788	0.000000000000000E+000	0.0136788	0.0000000E+000	0.000000000000000E+000	0.00161108
2	0	0	0	0	0	0	35.5484	-1.00001	-1.00025	-1.61971	-0.0505378	-0.0505378	11	-0.0140383	0	0.0140383	0.000000000000000E+000	0.0140383	0.0000000E+000	0.000000000000000E+000	0.00162011
2	0	0	0	0	0	0	36.3484	-1.00001	-1.00053	-1.51384	-0.0518049	-0.0518049	11	-0.0143902	0	0.0143902	0.000000000000000E+000	0.0143902	0.0000000E+000	0.000000000000000E+000	0.00151465
2	0	0	0	0	0	0	37.1484	-1.00001	-1.00042	-1.46662	-0.0529865	-0.0529865	11	-0.0147185	0	0.0147185	0.000000000000000E+000	0.0147185	0.0000000E+000	0.000000000000000E+000	0.00146724
2	0	0	0	0	0	0	37.9484	-1.00001	-1.00013	-1.46333	-0.0541585	-0.0541585	11	-0.015044	0	0.015044	0.000000000000000E+000	0.015044	0.0000000E+000	0.000000000000000E+000	0.00146352
2	0	0	0	0	0	0	38.7484	-1.00001	-1.00029	-1.46122	-0.0553292	-0.0553292	11	-0.0153692	0	0.0153692	0.000000000000000E+000	0.0153692	0.0000000E+000	0.000000000000000E+000	0.00146164
2	0	0	0	0	0	0	39.5484	-1.00001	-1.00031	-1.46408	-0.0565005	-0.0565005	11	-0.0156946	0	0.0156946	0.000000000000000E+000	0.0156946	0.0000000E+000	0.000000000000000E+000	0.00146453
2	0	0	0	0	0	0	40.3484	-1.00001	-1.00038	-1.46088	-0.0576697	-0.0576697	11	-0.0160194	0	0.0160194	0.000000000000000E+000	0.0160194	0.0000000E+000	0.000000000000000E+000	0.00146144
2	0	0	0	0	0	0	41.1484	-1.00001	-1.00032	-1.45806	-0.0588372	-0.0588372	11	-0.0163437	0	0.0163437	0.000000000000000E+000	0.0163437	0.0000000E+000	0.000000000000000E+000	0.00145853
2	0	0	0	0	0	0	41.9484	-1.00001	-1.00036	-1.45815	-0.0600045	-0.0600045	11	-0.0166679	0	0.0166679	0.000000000000000E+000	0.0166679	0.0000000E+000	0.000000000000000E+000	0.00145868
2	0	0	0	0	0	0	42.7484	-1.00001	-1.00046	-1.45806	-0.0611708	-0.0611708	11	-0.0169919	0	0.0169919	0.000000000000000E+000	0.0169919	0.0000000E+000	0.000000000000000E+000	0.00145873
2	0	0	0	0	0	0	43.5484	-1.00001	-1.00031	-1.46034	-0.0623397	-0.0623397	11	-0.0173166	0	0.0173166	0.000000000000000E+000	0.0173166	0.0000000E+000	0.000000000000000E+000	0.00146079
2	0	0	0	0	0	0	44.3484	-1.00001	-1.00032	-1.45784	-0.0635078	-0.0635078	11	-0.0176411	0	0.0176411	0.000000000000000E+000	0.0176411	0.0000000E+000	0.000000000000000E+000	0.00145831
2	0	0	0	0	0	0	45.1484	-1.00001	-1.00044	-1.46012	-0.064676	-0.064676	11	-0.0179656	0	0.0179656	0.000000000000000E+000	0.0179656	0.0000000E+000	0.000000000000000E+000	0.00146076
2	0	0	0	0	0	0	45.9484	-1.00001	-1.0004	-1.45604	-0.0658421	-0.0658421	11	-0.0182895	0	0.0182895	0.000000000000000E+000	0.0182895	0.0000000E+000	0.000000000000000E+000	0.00145662
2	0	0	0	0	0	0	46.7484	-1.00001	-1.00038	-1.42518	-0.0669893	-0.0669893	11	-0.0186081	0	0.0186081	0.000000000000000E+000	0.0186081	0.0000000E+000	0.000000000000000E+000	0.00142573
2	0	0	0	0	0	0	47.5484	-1.00001	-1.00046	-1.41501	-0.0681234	-0.0681234	11	-0.0189232	0	0.0189232	0.000000000000000E+000	0.0189232	0.0000000E+000	0.000000000000000E+000	0.00141566
2	0	0	0	0	0	0	48.3484	-1.00001	-1.00038	-1.41243	-0.069253	-0.069253	11	-0.0192369	0	0.0192369	0.000000000000000E+000	0.0192369	0.0000000E+000	0.000000000000000E+000	0.00141297
2	0	0	0	0	0	0	49.1484	-1.00001	-1.0004	-1.41055	-0.0703819	-0.0703819	11	-0.0195505	0	0.0195505	0.000000000000000E+000	0.0195505	0.0000000E+000	0.000000000000000E+000	0.00141111
2	0	0	0	0	0	0	49.9484	-1.00001	-1.00042	-1.40993	-0.0715097	-0.0715097	11	-0.0198638	0	0.0198638	0.000000000000000E+000	0.0198638	0.0000000E+000	0.000000000000000E+000	0.00141052
2	0	0	0	0	0	0	50.7484	-1.00001	-1.00034	-1.40639	-0.0726369	-0.0726369	11	-0.0201769	0	0.0201769	0.000000000000000E+000	0.0201769	0.0000000E+000	0.000000000000000E+000	0.00140687
2	0	0	0	0	0	0	51.5484	-1.00001	-1.00046	-1.41477	-0.0737668	-0.0737668	11	-0.0204908	0	0.0204908	0.000000000000000E+000	0.0204908	0.0000000E+000	0.000000000000000E+000	0.00141542
2	0	0	0	0	0	0	52.3484	-1.00001	-1.00034	-1.41409	-0.0748977	-0.0748977	11	-0.0208049	0	0.0208049	0.000000000000000E+000	0.0208049	0.0000000E+000	0.000000000000000E+000	0.00141457
2	0	0	0	0	0	0	53.1484	-1.00001	-1.0004	-1.41548	-0.0760294	-0.0760294	11	-0.0211193	0	0.0211193	0.000000000000000E+000	0.0211193	0.0000000E+000	0.000000000000000E+000	0.00141605
2	0	0	0	0	0	0	53.9484	-1.00001	-1.00029	-1.41417	-0.0771614	-0.0771614	11	-0.0214337	0	0.0214337	0.000000000000000E+000	0.0214337	0.0000000E+000	0.000000000000000E+000	0.00141457
2	0	0	0	0	0	0	54.7484	-1.00001	-1.0004	-1.41668	-0.0782945	-0.0782945	11	-0.0217485	0	0.0217485	0.000000000000000E+000	0.0217485	0.0000000E+000	0.000000000000000E+000	0.00141725
2	0	0	0	0	0	0	55.5484	-1.00001	-1.00038	-1.41672	-0.0794282	-0.0794282	11	-0.0220634	0	0.0220634	0.000000000000000E+000	0.0220634	0.0000000E+000	0.000000000000000E+000	0.00141726
2	0	0	0	0	0	0	56.3484	-1.00001	-1.00036	-1.41979	-0.0805637	-0.0805637	11	-0.0223788	0	0.0223788	0.000000000000000E+000	0.0223788	0.0000000E+000	0.000000000000000E+000	0.0014203
2	0	0	0	0	0	0	57.1484	-1.00001	-1.00017	-1.42464	-0.0817029	-0.0817029	11	-0.0226952	0	0.0226952	0.000000000000000E+000	0.0226952	0.0000000E+000	0.000000000000000E+000	0.00142488
2	0	0	0	0	0	0	57.9484	-1.00001	-1.0004	-1.42673	-0.0828421	-0.0828421	11	-0.0230117	0	0.0230117	0.000000000000000E+000	0.0230117	0.0000000E+000	0.000000000000000E+000	0.0014273
2	0	0	0	0	0	0	58.7484	-1.00001	-1.00052	-1.40936	-0.0839772	-0.0839772	11	-0.023327	0	0.023327	0.000000000000000E+000	0.023327	0.0000000E+000	0.000000000000000E+000	0.00141008
2	0	0	0	0	0	0	59.5484	-1.00001	-1.00036	-1.37075	-0.0850877	-0.0850877	11	-0.0236355	0	0.0236355	0.000000000000000E+000	0.0236355	0.0000000E+000	0.000000000000000E+000	0.00137125
2	0	0	0	0	0	0	60.3484	-1.00001	-1.00034	-1.34423	-0.0861716	-0.0861716	11	-0.0239366	0	0.0239366	0.000000000000000E+000	0.0239366	0.0000000E+000	0.000000000000000E+000	0.00134469
2	0	0	0	0	0	0	61.1484	-1.00001	-1.00031	-1.33258	-0.0872413	-0.0872413	11	-0.0242337	0	0.0242337	0.000000000000000E+000	0.0242337	0.0000000E+000	0.000000000000000E+000	0.00133299
2	0	0	0	0	0	0	61.9484	-1.00001	-1.00032	-1.32642	-0.0883051	-0.0883051	11	-0.0245292	0	0.0245292	0.000000000000000E+000	0.0245292	0.0000000E+000	0.000000000000000E+000	0.00132685
2	0	0	0	0	0	0	62.7484	-1.00001	-1.00034	-1.32311	-0.0893658	-0.0893658	11	-0.0248238	0	0.0248238	0.000000000000000E+000	0.0248238	0.0000000E+000	0.000000000000000E+000	0.00132356
2	0	0	0	0	0	0	63.5484	-1.00001	-1.00044	-1.3212	-0.0904236	-0.0904236	11	-0.0251177	0	0.0251177	0.000000000000000E+000	0.0251177	0.0000000E+000	0.000000000000000E+000	0.00132178
2	0	0	0	0	0	0	64.3484	-1.00001	-1.00046	-1.3206	-0.09148	-0.09148	11	-0.0254111	0	0.0254111	0.000000000000000E+000	0.0254111	0.0000000E+000	0.000000000000000E+000	0.00132121
2	0	0	0	0	0	0	65.1484	-1.00001	-1.00034	-1.32146	-0.0925355	-0.0925355	11	-0.0257043	0	0.0257043	0.000000000000000E+000	0.0257043	0.0000000E+000	0.000000000000000E+000	0.00132191
2	0	0	0	0	0	0	65.9484	-1.00001	-1.00038	-1.32276	-0.0935911	-0.0935911	11	-0.0259975	0	0.0259975	0.000000000000000E+000	0.0259975	0.0000000E+000	0.000000000000000E+000	0.00132326
2	0	0	0	0	0	0	66.7484	-1.00001	-1.0004	-1.32158	-0.094649	-0.094649	11	-0.0262914	0	0.0262914	0.000000000000000E+000	0.0262914	0.0000000E+000	0.000000000000000E+000	0.00132211
2	0	0	0	0	0	0	67.5484	-1.00001	-1.00038	-1.32169	-0.0957062	-0.0957062	11	-0.0265851	0	0.0265851	0.000000000000000E+000	0.0265851	0.0000000E+000	0.000000000000000E+000	0.0013222
2	0	0	0	0	0	0	68.3484	-1.00001	-1.00029	-1.3192	-0.0967629	-0.0967629	11	-0.0268786	0	0.0268786	0.000000000000000E+000	0.0268786	0.0000000E+000	0.000000000000000E+000	0.00131958
2	0	0	0	0	0	0	69.1484	-1.00001	-1.00044	-1.32193	-0.0978206	-0.0978206	11	-0.0271724	0	0.0271724	0.000000000000000E+000	0.0271724	0.0000000E+000	0.000000000000000E+000	0.00132251
2	0	0	0	0	0	0	69.9484	-1.00001	-1.00042	-1.33453	-0.0988876	-0.0988876	11	-0.0274688	0	0.0274688	0.000000000000000E+000	0.0274688	0.0000000E+000	0.000000000000000E+000	0.00133509
2	0	0	0	0	0	0	70.7484	-1.00001	-1.00034	-1.32867	-0.0999524	-0.0999524	11	-0.0277646	0	0.0277646	0.000000000000000E+000	0.0277646	0.0000000E+000	0.000000000000000E+000	0.00132913
2	0	0	0	0	0	0	71.5484	-1.00001	-1.00042	-1.33114	-0.101018	-0.101018	11	-0.0280604	0	0.0280604	0.000000000000000E+000	0.0280604	0.0000000E+000	0.000000000000000E+000	0.0013317
2	0	0	0	0	0	0	72.3484	-1.00001	-1.0004	-1.32918	-0.102082	-0.102082	11	-0.0283561	0	0.0283561	0.000000000000000E+000	0.0283561	0.0000000E+000	0.000000000000000E+000	0.00132972
2	0	0	0	0	0	0	73.1484	-1.00001	-1.00044	-1.33566	-0.103147	-0.103147	11	-0.028652	0	0.028652	0.000000000000000E+000	0.028652	0.0000000E+000	0.000000000000000E+000	0.00133625
2	0	0	0	0	0	0	73.9484	-1.00001	-1.00027	-1.32981	-0.104213	-0.104213	11	-0.028948	0	0.028948	0.000000000000000E+000	0.028948	0.0000000E+000	0.000000000000000E+000	0.00133017
2	0	0	0	0	0	0	74.7484	-1.00001	-1.00046	-1.33308	-0.10528	-0.10528	11	-0.0292444	0	0.0292444	0.000000000000000E+000	0.0292444	0.0000000E+000	0.000000000000000E+000	0.00133369
2	0	0	0	0	0	0	75.5484	-1.00001	-1.00031	-1.3324	-0.106344	-0.106344	11	-0.0295401	0	0.0295401	0.000000000000000E+000	0.0295401	0.0000000E+000	0.000000000000000E+000	0.00133281
2	0	0	0	0	0	0	76.3484	-1.00001	-1.00031	-1.33071	-0.10741	-0.10741	11	-0.0298361	0	0.0298361	0.000000000000000E+000	0.0298361	0.0000000E+000	0.000000000000000E+000	0.00133111
2	0	0	0	0	0	0	77.1484	-1.00001	-1.00029	-1.33777	-0.108475	-0.108475	11	-0.0301319	0	0.0301319	0.000000000000000E+000	0.0301319	0.0000000E+000	0.000000000000000E+000	0.00133816
2	0	0	0	0	0	0	77.9484	-1.00001	-1.00038	-1.33157	-0.10954	-0.10954	11	-0.0304279	0	0.0304279	0.000000000000000E+000	0.0304279	0.0000000E+000	0.000000000000000E+000	0.00133208
2	0	0	0	0	0	0	78.7484	-1.00001	-1.00036	-1.33354	-0.110607	-0.110607	11	-0.0307243	0	0.0307243	0.000000000000000E+000	0.0307243	0.0000000E+000	0.000000000000000E+000	0.00133402
2	0	0	0	0	0	0	79.5484	-1.00001	-1.0004	-1.33262	-0.111673	-0.111673	11	-0.0310204	0	0.0310204	0.000000000000000E+000	0.0310204	0.0000000E+000	0.000000000000000E+000	0.00133315
2	0	0	0	0	0	0	80.3484	-1.00001	-1.00036	-1.33429	-0.11274	-0.11274	11	-0.0313168	0	0.0313168	0.000000000000000E+000	0.0313168	0.0000000E+000	0.000000000000000E+000	0.00133477
2	0	0	0	0	0	0	81.1484	-1.00001	-1.00032	-1.33318	-0.113807	-0.113807	11	-0.0316131	0	0.0316131	0.000000000000000E+000	0.0316131	0.0000000E+000	0.000000000000000E+000	0.00133361
2	0	0	0	0	0	0	81.9484	-1.00001	-1.00044	-1.33148	-0.114872	-0.114872	11	-0.031909	0	0.031909	0.000000000000000E+000	0.031909	0.0000000E+000	0.000000000000000E+000	0.00133207
2	0	0	0	0	0	0	82.7484	-1.00001	-1.00046	-1.33169	-0.115938	-0.115938	11	-0.0322049	0	0.0322049	0.000000000000000E+000	0.0322049	0.0000000E+000	0.000000000000000E+000	0.0013323
2	0	0	0	0	0	0	83.5484	-1.00001	-1.00044	-1.32966	-0.117002	-0.117002	11	-0.0325006	0	0.0325006	0.000000000000000E+000	0.0325006	0.0000000E+000	0.000000000000000E+000	0.00133024
2	0	0	0	0	0	0	84.3484	-1.00001	-1.00048	-1.32224	-0.118064	-0.118064	11	-0.0327955	0	0.0327955	0.000000000000000E+000	0.0327955	0.0000000E+000	0.000000000000000E+000	0.00132287
2	0	0	0	0	0	0	85.1484	-1.00001	-1.00038	-1.30472	-0.119114	-0.119114	11	-0.0330873	0	0.0330873	0.000000000000000E+000	0.0330873	0.0000000E+000	0.000000000000000E+000	0.00130522
2	0	0	0	0	0	0	85.9484	-1.00001	-1.00036	-1.29155	-0.120151	-0.120151	11	-0.0333752	0	0.0333752	0.000000000000000E+000	0.0333752	0.0000000E+000	0.000000000000000E+000	0.00129202
2	0	0	0	0	0	0	86.7484	-1.00001	-1.00034	-1.28684	-0.12118	-0.12118	11	-0.0336611	0	0.0336611	0.000000000000000E+000	0.0336611	0.0000000E+000	0.000000000000000E+000	0.00128729
2	0	0	0	0	0	0	87.5484	-1.00001	-1.00036	-1.29312	-0.122208	-0.122208	11	-0.0339465	0	0.0339465	0.000000000000000E+000	0.0339465	0.0000000E+000	0.000000000000000E+000	0.00129359
2	0	0	0	0	0	0	88.3484	-1.00001	-1.00038	-1.28127	-0.123239	-0.123239	11	-0.0342329	0	0.0342329	0.000000000000000E+000	0.0342329	0.0000000E+000	0.000000000000000E+000	0.00128176
2	0	0	0	0	0	0	89.1484	-1.00001	-1.00034	-1.28042	-0.124263	-0.124263	11	-0.0345174	0	0.0345174	0.000000000000000E+000	0.0345174	0.0000000E+000	0.000000000000000E+000	0.00128086
2	0	0	0	0	0	0	89.9484	-1.00001	-1.00046	-1.2751	-0.125285	-0.125285	11	-0.0348014	0	0.0348014	0.000000000000000E+000	0.0348014	0.0000000E+000	0.000000000000000E+000	0.00127569
2	0	0	0	0	0	0	90.7484	-1.00001	-1.00038	-1.27891	-0.126306	-0.126306	11	-0.035085	0	0.035085	0.000000000000000E+000	0.035085	0.0000000E+000	0.000000000000000E+000	0.0012794
2	0	0	0	0	0	0	91.5484	-1.00001	-1.00029	-1.27483	-0.127327	-0.127327	11	-0.0353685	0	0.0353685	0.000000000000000E+000	0.0353685	0.0000000E+000	0.000000000000000E+000	0.0012752
2	0	0	0	0	0	0	92.3484	-1.00001	-1.0004	-1.27324	-0.128346	-0.128346	11	-0.0356515	0	0.0356515	0.000000000000000E+000	0.0356515	0.0000000E+000	0.000000000000000E+000	0.00127375
2	0	0	0	0	0	0	93.1484	-1.00001	-1.00031	-1.27487	-0.129365	-0.129365	11	-0.0359348	0	0.0359348	0.000000000000000E+000	0.0359348	0.0000000E+000	0.000000000000000E+000	0.00127526
2	0	0	0	0	0	0	93.9484	-1.00001	-1.00046	-1.25829	-0.130381	-0.130381	11	-0.036217	0	0.036217	0.000000000000000E+000	0.036217	0.0000000E+000	0.000000000000000E+000	0.00125887
2	0	0	0	0	0	0	94.7484	-1.00001	-1.00038	-1.2367	-0.131377	-0.131377	11	-0.0364936	0	0.0364936	0.000000000000000E+000	0.0364936	0.0000000E+000	0.000000000000000E+000	0.00123717
2	0	0	0	0	0	0	95.5484	-1.00001	-1.0004	-1.22153	-0.13236	-0.13236	11	-0.0367668	0	0.0367668	0.000000000000000E+000	0.0367668	0.0000000E+000	0.000000000000000E+000	0.00122202
2	0	0	0	0	0	0	96.3484	-1.00001	-1.00046	-1.21787	-0.133334	-0.133334	11	-0.0370372	0	0.0370372	0.000000000000000E+000	0.0370372	0.0000000E+000	0.000000000000000E+000	0.00121843
2	0	0	0	0	0	0	97.1484	-1.00001	-1.00029	-1.20724	-0.134302	-0.134302	11	-0.0373061	0	0.0373061	0.000000000000000E+000	0.0373061	0.0000000E+000	0.000000000000000E+000	0.00120758
2	0	0	0	0	0	0	97.9484	-1.00001	-1.00029	-1.20322	-0.135265	-0.135265	11	-0.0375736	0	0.0375736	0.000000000000000E+000	0.0375736	0.0000000E+000	0.000000000000000E+000	0.00120356
2	0	0	0	0	0	0	98.7484	-1.00001	-1.00038	-1.19607	-0.136223	-0.136223	11	-0.0378398	0	0.0378398	0.000000000000000E+000	0.0378398	0.0000000E+000	0.000000000000000E+000	0.00119653
2	0	0	0	0	0	0	99.5484	-1.00001	-1.00027	-1.19823	-0.137181	-0.137181	11	-0.0381058	0	0.0381058	0.000000000000000E+000	0.0381058	0.0000000E+000	0.000000000000000E+000	0.00119855
2	0	0	0	0	0	0	100.348	-1.00001	-1.00038	-1.19211	-0.138136	-0.138136	11	-0.0383711	0	0.0383711	0.000000000000000E+000	0.0383711	0.0000000E+000	0.000000000000000E+000	0.00119257
2	0	0	0	0	0	0	101.148	-1.00001	-1.00031	-1.19114	-0.13909	-0.13909	11	-0.0386361	0	0.0386361	0.000000000000000E+000	0.0386361	0.0000000E+000	0.000000000000000E+000	0.0011915
2	0	0	0	0	0	0	101.948	-1.00001	-1.0004	-1.20399	-0.140046	-0.140046	11	-0.0389016	0	0.0389016	0.000000000000000E+000	0.0389016	0.0000000E+000	0.000000000000000E+000	0.00120448
2	0	0	0	0	0	0	102.748	-1.00001	-1.00036	-1.1927	-0.141004	-0.141004	11	-0.0391678	0	0.0391678	0.000000000000000E+000	0.0391678	0.0000000E+000	0.000000000000000E+000	0.00119313
2	0	0	0	0	0	0	103.548	-1.00001	-1.00036	-1.18513	-0.141955	-0.141955	11	-0.039432	0	0.039432	0.000000000000000E+000	0.039432	0.0000000E+000	0.000000000000000E+000	0.00118556
2	0	0	0	0	0	0	104.348	-1.00001	-1.00029	-1.18496	-0.142903	-0.142903	11	-0.0396954	0	0.0396954	0.000000000000000E+000	0.0396954	0.0000000E+000	0.000000000000000E+000	0.0011853
2	0	0	0	0	0	0	105.148	-1.00001	-1.00034	-1.35226	-0.1439	-0.1439	11	-0.0399721	0	0.0399721	0.000000000000000E+000	0.0399721	0.0000000E+000	0.000000000000000E+000	0.00135272
2	0	0	0	0	0	0	105.948	-1.00001	-1.00048	-1.23955	-0.14493	-0.14493	11	-0.0402583	0	0.0402583	0.000000000000000E+000	0.0402583	0.0000000E+000	0.000000000000000E+000	0.00124014
2	0	0	0	0	0	0	106.748	-1.00001	-1.00032	-1.1962	-0.145902	-0.145902	11	-0.0405283	0	0.0405283	0.000000000000000E+000	0.0405283	0.0000000E+000	0.000000000000000E+000	0.00119659
2	0	0	0	0	0	0	107.548	-1.00001	-1.00038	-1.17555	-0.146849	-0.146849	11	-0.0407914	0	0.0407914	0.000000000000000E+000	0.0407914	0.0000000E+000	0.000000000000000E+000	0.001176
2	0	0	0	0	0	0	108.348	-1.00001	-1.00034	-1.16156	-0.147783	-0.147783	11	-0.0410509	0	0.0410509	0.000000000000000E+000	0.0410509	0.0000000E+000	0.000000000000000E+000	0.00116196
2	0	0	0	0	0	0	109.148	-1.00001	-1.00044	-1.15161	-0.148709	-0.148709	11	-0.0413081	0	0.0413081	0.000000000000000E+000	0.0413081	0.0000000E+000	0.000000000000000E+000	0.00115212
2	0	0	0	0	0	0	109.948	-1.00001	-1.0004	-1.14813	-0.149628	-0.149628	11	-0.0415634	0	0.0415634	0.000000000000000E+000	0.0415634	0.0000000E+000	0.000000000000000E+000	0.00114859
2	0	0	0	0	0	0	110.748	-1.00001	-1.00044	-1.13864	-0.15054	-0.15054	11	-0.0418167	0	0.0418167	0.000000000000000E+000	0.0418167	0.0000000E+000	0.000000000000000E+000	0.00113914
2	0	0	0	0	0	0	111.548	-1.00001	-1.00031	-1.134	-0.151448	-0.151448	11	-0.042069	0	0.042069	0.000000000000000E+000	0.042069	0.0000000E+000	0.000000000000000E+000	0.00113434
2	0	0	0	0	0	0	112.348	-1.00001	-1.00034	-1.12821	-0.152352	-0.152352	11	-0.04232	0	0.04232	0.000000000000000E+000	0.04232	0.0000000E+000	0.000000000000000E+000	0.0011286
2	0	0	0	0	0	0	113.148	-1.00001	-1.00034	-1.13047	-0.153256	-0.153256	11	-0.0425712	0	0.0425712	0.000000000000000E+000	0.0425712	0.0000000E+000	0.000000000000000E+000	0.00113085
2	0	0	0	0	0	0	113.948	-1.00001	-1.00034	-1.12481	-0.154157	-0.154157	11	-0.0428214	0	0.0428214	0.000000000000000E+000	0.0428214	0.0000000E+000	0.000000000000000E+000	0.00112519
2	0	0	0	0	0	0	114.748	-1.00001	-1.00042	-1.13177	-0.155061	-0.155061	11	-0.0430724	0	0.0430724	0.000000000000000E+000	0.0430724	0.0000000E+000	0.000000000000000E+000	0.00113225
2	0	0	0	0	0	0	115.548	-1.00001	-1.00042	-1.12499	-0.155962	-0.155962	11	-0.0433228	0	0.0433228	0.000000000000000E+000	0.0433228	0.0000000E+000	0.000000000000000E+000	0.00112546
2	0	0	0	0	0	0	116.348	-1.00001	-1.00036	-1.13251	-0.156863	-0.156863	11	-0.043573	0	0.043573	0.000000000000000E+000	0.043573	0.0000000E+000	0.000000000000000E+000	0.00113292
2	0	0	0	0	0	0	117.148	-1.00001	-1.00042	-1.12852	-0.157762	-0.157762	11	-0.0438228	0	0.0438228	0.000000000000000E+000	0.0438228	0.0000000E+000	0.000000000000000E+000	0.00112899
2	0	0	0	0	0	0	117.948	-1.00001	-1.00034	-1.13728	-0.158668	-0.158668	11	-0.0440745	0	0.0440745	0.000000000000000E+000	0.0440745	0.0000000E+000	0.000000000000000E+000	0.00113767
2	0	0	0	0	0	0	118.748	-1.00001	-1.00029	-1.14918	-0.159583	-0.159583	11	-0.0443287	0	0.0443287	0.000000000000000E+000	0.0443287	0.0000000E+000	0.000000000000000E+000	0.00114951
2	0	0	0	0	0	0	119.548	-1.00001	-1.00048	-1.15419	-0.160505	-0.160505	11	-0.0445847	0	0.0445847	0.000000000000000E+000	0.0445847	0.0000000E+000	0.000000000000000E+000	0.00115474
2	0	0	0	0	0	0	120.348	-1.00001	-1.00025	-1.16552	-0.161437	-0.161437	11	-0.0448436	0	0.0448436	0.000000000000000E+000	0.0448436	0.0000000E+000	0.000000000000000E+000	0.00116581
2	0	0	0	0	0	0	121.148	-1.00001	-1.00036	-1.17108	-0.162372	-0.162372	11	-0.0451032	0	0.0451032	0.000000000000000E+000	0.0451032	0.0000000E+000	0.000000000000000E+000	0.0011715
2	0	0	0	0	0	0	121.948	-1.00001	-1.00029	-1.16923	-0.163308	-0.163308	11	-0.0453635	0	0.0453635	0.000000000000000E+000	0.0453635	0.0000000E+000	0.000000000000000E+000	0.00116956
2	0	0	0	0	0	0	122.748	-1.00001	-1.00038	-1.17418	-0.164245	-0.164245	11	-0.0456237	0	0.0456237	0.000000000000000E+000	0.0456237	0.0000000E+000	0.000000000000000E+000	0.00117463
2	0	0	0	0	0	0	123.548	-1.00001	-1.0004	-1.17649	-0.165187	-0.165187	11	-0.0458852	0	0.0458852	0.000000000000000E+000	0.0458852	0.0000000E+000	0.000000000000000E+000	0.00117697
2	0	0	0	0	0	0	124.348	-1.00001	-1.00032	-1.17415	-0.166127	-0.166127	11	-0.0461463	0	0.0461463	0.000000000000000E+000	0.0461463	0.0000000E+000	0.000000000000000E+000	0.00117453
2	0	0	0	0	0	0	125.148	-1.00001	-1.00029	-1.17211	-0.167065	-0.167065	11	-0.046407	0	0.046407	0.000000000000000E+000	0.046407	0.0000000E+000	0.000000000000000E+000	0.00117245
2	0	0	0	0	0	0	125.948	-1.00001	-1.00046	-1.18333	-0.168009	-0.168009	11	-0.0466691	0	0.0466691	0.000000000000000E+000	0.0466691	0.0000000E+000	0.000000000000000E+000	0.00118387
2	0	0	0	0	0	0	126.748	-1.00001	-1.00042	-1.18367	-0.168955	-0.168955	11	-0.0469319	0	0.0469319	0.000000000000000E+000	0.0469319	0.0000000E+000	0.000000000000000E+000	0.00118417
2	0	0	0	0	0	0	127.548	-1.00001	-1.00017	-1.17846	-0.169899	-0.169899	11	-0.0471943	0	0.0471943	0.000000000000000E+000	0.0471943	0.0000000E+000	0.000000000000000E+000	0.00117866
2	0	0	0	0	0	0	128.348	-1.00001	-1.00038	-1.1809	-0.170841	-0.170841	11	-0.047456	0	0.047456	0.000000000000000E+000	0.047456	0.0000000E+000	0.000000000000000E+000	0.00118135
2	0	0	0	0	0	0	129.148	-1.00001	-1.00036	-1.1806	-0.171785	-0.171785	11	-0.0477181	0	0.0477181	0.000000000000000E+000	0.0477181	0.0000000E+000	0.000000000000000E+000	0.00118103
2	0	0	0	0	0	0	129.948	-1.00001	-1.00021	-1.17908	-0.172728	-0.172728	11	-0.04798	0	0.04798	0.000000000000000E+000	0.04798	0.0000000E+000	0.000000000000000E+000	0.00117933
2	0	0	0	0	0	0	130.748	-1.00001	-1.0004	-1.17704	-0.173674	-0.173674	11	-0.0482429	0	0.0482429	0.000000000000000E+000	0.0482429	0.0000000E+000	0.000000000000000E+000	0.00117751
2	0	0	0	0	0	0	131.548	-1.00001	-1.00038	-1.17196	-0.174612	-0.174612	11	-0.0485033	0	0.0485033	0.000000000000000E+000	0.0485033	0.0000000E+000	0.000000000000000E+000	0.0011724
2	0	0	0	0	0	0	132.348	-1.00001	-1.00034	-1.17047	-0.175549	-0.175549	11	-0.0487636	0	0.0487636	0.000000000000000E+000	0.0487636	0.0000000E+000	0.000000000000000E+000	0.00117087
2	0	0	0	0	0	0	133.148	-1.00001	-1.00046	-1.17471	-0.176486	-0.176486	11	-0.0490239	0	0.0490239	0.000000000000000E+000	0.0490239	0.0000000E+000	0.000000000000000E+000	0.00117525
2	0	0	0	0	0	0	133.948	-1.00001	-1.00042	-1.18332	-0.177431	-0.177431	11	-0.0492863	0	0.0492863	0.000000000000000E+000	0.0492863	0.0000000E+000	0.000000000000000E+000	0.00118382
2	0	0	0	0	0	0	134.748	-1.00001	-1.00044	-1.1741	-0.178371	-0.178371	11	-0.0495476	0	0.0495476	0.000000000000000E+000	0.0495476	0.0000000E+000	0.000000000000000E+000	0.00117461
2	0	0	0	0	0	0	135.548	-1.00001	-1.00034	-1.17485	-0.179312	-0.179312	11	-0.049809	0	0.049809	0.000000000000000E+000	0.049809	0.0000000E+000	0.000000000000000E+000	0.00117526
2	0	0	0	0	0	0	136.348	-1.00001	-1.00048	-1.17924	-0.180256	-0.180256	11	-0.0500711	0	0.0500711	0.000000000000000E+000	0.0500711	0.0000000E+000	0.000000000000000E+000	0.0011798
2	0	0	0	0	0	0	137.148	-1.00001	-1.00042	-1.1907	-0.181205	-0.181205	11	-0.0503346	0	0.0503346	0.000000000000000E+000	0.0503346	0.0000000E+000	0.000000000000000E+000	0.0011912
2	0	0	0	0	0	0	137.948	-1.00001	-1.00034	-1.22437	-0.182174	-0.182174	11	-0.0506038	0	0.0506038	0.000000000000000E+000	0.0506038	0.0000000E+000	0.000000000000000E+000	0.00122479
2	0	0	0	0	0	0	138.748	-1.00001	-1.00038	-1.2524	-0.183173	-0.183173	11	-0.0508815	0	0.0508815	0.000000000000000E+000	0.0508815	0.0000000E+000	0.000000000000000E+000	0.00125287
2	0	0	0	0	0	0	139.548	-1.00001	-1.00042	-1.25985	-0.18418	-0.18418	11	-0.051161	0	0.051161	0.000000000000000E+000	0.051161	0.0000000E+000	0.000000000000000E+000	0.00126038
2	0	0	0	0	0	0	140.348	-1.00001	-1.00042	-1.26994	-0.185193	-0.185193	11	-0.0514424	0	0.0514424	0.000000000000000E+000	0.0514424	0.0000000E+000	0.000000000000000E+000	0.00127047
2	0	0	0	0	0	0	141.148	-1.00001	-1.00036	-1.27552	-0.186209	-0.186209	11	-0.0517249	0	0.0517249	0.000000000000000E+000	0.0517249	0.0000000E+000	0.000000000000000E+000	0.00127598
2	0	0	0	0	0	0	141.948	-1.00001	-1.00034	-1.27455	-0.187232	-0.187232	11	-0.0520089	0	0.0520089	0.000000000000000E+000	0.0520089	0.0000000E+000	0.000000000000000E+000	0.00127499
2	0	0	0	0	0	0	142.748	-1.00001	-1.00029	-1.27167	-0.188251	-0.188251	11	-0.0522921	0	0.0522921	0.000000000000000E+000	0.0522921	0.0000000E+000	0.000000000000000E+000	0.00127203
2	0	0	0	0	0	0	143.548	-1.00001	-1.00046	-1.27265	-0.18927	-0.18927	11	-0.0525749	0	0.0525749	0.000000000000000E+000	0.0525749	0.0000000E+000	0.000000000000000E+000	0.00127323
2	0	0	0	0	0	0	144.348	-1.00001	-1.00044	-1.27289	-0.190289	-0.190289	11	-0.0528581	0	0.0528581	0.000000000000000E+000	0.0528581	0.0000000E+000	0.000000000000000E+000	0.00127345
2	0	0	0	0	0	0	145.148	-1.00001	-1.00036	-1.2715	-0.191308	-0.191308	11	-0.0531412	0	0.0531412	0.000000000000000E+000	0.0531412	0.0000000E+000	0.000000000000000E+000	0.00127196
2	0	0	0	0	0	0	145.948	-1.00001	-1.00029	-1.26564	-0.192324	-0.192324	11	-0.0534233	0	0.0534233	0.000000000000000E+000	0.0534233	0.0000000E+000	0.000000000000000E+000	0.001266
2	0	0	0	0	0	0	146.748	-1.00001	-1.00038	-1.26946	-0.193335	-0.193335	11	-0.0537042	0	0.0537042	0.000000000000000E+000	0.0537042	0.0000000E+000	0.000000000000000E+000	0.00126995
2	0	0	0	0	0	0	147.548	-1.00001	-1.00036	-1.27513	-0.194351	-0.194351	11	-0.0539863	0	0.0539863	0.000000000000000E+000	0.0539863	0.0000000E+000	0.000000000000000E+000	0.00127559
2	0	0	0	0	0	0	148.348	-1.00001	-1.00034	-1.25881	-0.19536	-0.19536	11	-0.0542666	0	0.0542666	0.000000000000000E+000	0.0542666	0.0000000E+000	0.000000000000000E+000	0.00125925
2	0	0	0	0	0	0	149.148	-1.00001	-1.00044	-1.26169	-0.196368	-0.196368	11	-0.0545466	0	0.0545466	0.000000000000000E+000	0.0545466	0.0000000E+000	0.000000000000000E+000	0.00126224
2	0	0	0	0	0	0	149.948	-1.00001	-1.00032	-1.33945	-0.19747	-0.19747	11	-0.0548529	0	0.0548529	0.000000000000000E+000	0.0548529	0.0000000E+000	0.000000000000000E+000	0.00133989
2	0	0	0	0	0	0	150.748	-1.00001	-1.00036	-1.31979	-0.198538	-0.198538	11	-0.0551493	0	0.0551493	0.000000000000000E+000	0.0551493	0.0000000E+000	0.000000000000000E+000	0.00132027
2	0	0	0	0	0	0	151.548	-1.00001	-1.00038	-1.30187	-0.199583	-0.199583	11	-0.0554397	0	0.0554397	0.000000000000000E+000	0.0554397	0.0000000E+000	0.000000000000000E+000	0.00130237
2	0	0	0	0	0	0	152.348	-1.00001	-1.00038	-1.51442	-0.200761	-0.200761	11	-0.055767	0	0.055767	0.000000000000000E+000	0.055767	0.0000000E+000	0.000000000000000E+000	0.00151499
2	0	0	0	0	0	0	153.148	-1.00001	-1.00032	-1.42314	-0.201917	-0.201917	11	-0.0560882	0	0.0560882	0.000000000000000E+000	0.0560882	0.0000000E+000	0.000000000000000E+000	0.00142361
2	0	0	0	0	0	0	153.948	-1.00001	-1.00053	-1.40793	-0.203048	-0.203048	11	-0.0564023	0	0.0564023	0.000000000000000E+000	0.0564023	0.0000000E+000	0.000000000000000E+000	0.00140868
2	0	0	0	0	0	0	154.748	-1.00001	-1.00034	-1.39058	-0.20417	-0.20417	11	-0.0567138	0	0.0567138	0.000000000000000E+000	0.0567138	0.0000000E+000	0.000000000000000E+000	0.00139105
2	0	0	0	0	0	0	155.548	-1.00001	-1.00046	-1.38819	-0.205281	-0.205281	11	-0.0570225	0	0.0570225	0.000000000000000E+000	0.0570225	0.0000000E+000	0.000000000000000E+000	0.00138882
2	0	0	0	0	0	0	156.348	-1.00001	-1.00027	-1.3903	-0.206393	-0.206393	11	-0.0573313	0	0.0573313	0.000000000000000E+000	0.0573313	0.0000000E+000	0.000000000000000E+000	0.00139067
2	0	0	0	0	0	0	157.148	-1.00001	-1.00025	-1.39212	-0.207505	-0.207505	11	-0.0576404	0	0.0576404	0.000000000000000E+000	0.0576404	0.0000000E+000	0.000000000000000E+000	0.00139247
2	0	0	0	0	0	0	157.948	-1.00001	-1.00036	-1.38311	-0.208615	-0.208615	11	-0.0579487	0	0.0579487	0.000000000000000E+000	0.0579487	0.0000000E+000	0.000000000000000E+000	0.00138361
2	0	0	0	0	0	0	158.748	-1.00001	-1.00036	-1.38387	-0.209722	-0.209722	11	-0.0582561	0	0.0582561	0.000000000000000E+000	0.0582561	0.0000000E+000	0.000000000000000E+000	0.00138437
2	0	0	0	0	0	0	159.548	-1.00001	-1.00038	-1.38187	-0.210827	-0.210827	11	-0.0585631	0	0.0585631	0.000000000000000E+000	0.0585631	0.0000000E+000	0.000000000000000E+000	0.00138239
2	0	0	0	0	0	0	160.348	-1.00001	-1.00036	-1.38718	-0.211933	-0.211933	11	-0.0588703	0	0.0588703	0.000000000000000E+000	0.0588703	0.0000000E+000	0.000000000000000E+000	0.00138768
2	0	0	0	0	0	0	161.148	-1.00001	-1.00032	-1.38707	-0.213042	-0.213042	11	-0.0591783	0	0.0591783	0.000000000000000E+000	0.0591783	0.0000000E+000	0.000000000000000E+000	0.00138752
2	0	0	0	0	0	0	161.948	-1.00001	-1.00034	-1.39868	-0.214163	-0.214163	11	-0.0594898	0	0.0594898	0.000000000000000E+000	0.0594898	0.0000000E+000	0.000000000000000E+000	0.00139916
2	0	0	0	0	0	0	162.748	-1.00001	-1.00023	-1.39523	-0.21528	-0.21528	11	-0.0598	0	0.0598	0.000000000000000E+000	0.0598	0.0000000E+000	0.000000000000000E+000	0.00139555
2	0	0	0	0	0	0	163.548	-1.00001	-1.0004	-1.39881	-0.216398	-0.216398	11	-0.0601106	0	0.0601106	0.000000000000000E+000	0.0601106	0.0000000E+000	0.000000000000000E+000	0.00139937
2	0	0	0	0	0	0	164.348	-1.00001	-1.00025	-1.43436	-0.217526	-0.217526	11	-0.060424	0	0.060424	0.000000000000000E+000	0.060424	0.0000000E+000	0.000000000000000E+000	0.00143472
2	0	0	0	0	0	0	165.148	-1.00001	-1.00036	-1.5045	-0.218708	-0.218708	11	-0.0607523	0	0.0607523	0.000000000000000E+000	0.0607523	0.0000000E+000	0.000000000000000E+000	0.00150505
2	0	0	0	0	0	0	165.948	-1.00001	-1.00038	-1.52336	-0.219923	-0.219923	11	-0.0610897	0	0.0610897	0.000000000000000E+000	0.0610897	0.0000000E+000	0.000000000000000E+000	0.00152394
2	0	0	0	0	0	0	166.748	-1.00001	-1.0004	-1.5396	-0.221151	-0.221151	11	-0.0614309	0	0.0614309	0.000000000000000E+000	0.0614309	0.0000000E+000	0.000000000000000E+000	0.00154022
2	0	0	0	0	0	0	167.548	-1.00001	-1.00036	-1.5435	-0.222385	-0.222385	11	-0.0617737	0	0.0617737	0.000000000000000E+000	0.0617737	0.0000000E+000	0.000000000000000E+000	0.00154406
2	0	0	0	0	0	0	168.348	-1.00001	-1.00031	-1.54387	-0.223623	-0.223623	11	-0.0621175	0	0.0621175	0.000000000000000E+000	0.0621175	0.0000000E+000	0.000000000000000E+000	0.00154434
2	0	0	0	0	0	0	169.148	-1.00001	-1.00032	-1.54787	-0.22486	-0.22486	11	-0.062461	0	0.062461	0.000000000000000E+000	0.062461	0.0000000E+000	0.000000000000000E+000	0.00154838
2	0	0	0	0	0	0	169.948	-1.00001	-1.00015	-1.54982	-0.226099	-0.226099	11	-0.0628054	0	0.0628054	0.000000000000000E+000	0.0628054	0.0000000E+000	0.000000000000000E+000	0.00155005
2	0	0	0	0	0	0	170.748	-1.00001	-1.00036	-1.54648	-0.227338	-0.227338	11	-0.0631496	0	0.0631496	0.000000000000000E+000	0.0631496	0.0000000E+000	0.000000000000000E+000	0.00154704
2	0	0	0	0	0	0	171.548	-1.00001	-1.00034	-1.54552	-0.228577	-0.228577	11	-0.0634935	0	0.0634935	0.000000000000000E+000	0.0634935	0.0000000E+000	0.000000000000000E+000	0.00154605
2	0	0	0	0	0	0	172.348	-1.00001	-1.00029	-1.54736	-0.229816	-0.229816	11	-0.0638377	0	0.0638377	0.000000000000000E+000	0.0638377	0.0000000E+000	0.000000000000000E+000	0.00154781
2	0	0	0	0	0	0	173.148	-1.00001	-1.00055	-1.55259	-0.231053	-0.231053	11	-0.0641814	0	0.0641814	0.000000000000000E+000	0.0641814	0.0000000E+000	0.000000000000000E+000	0.00155345
2	0	0	0	0	0	0	173.948	-1.00001	-1.00044	-1.55941	-0.2323	-0.2323	11	-0.0645277	0	0.0645277	0.000000000000000E+000	0.0645277	0.0000000E+000	0.000000000000000E+000	0.0015601
2	0	0	0	0	0	0	174.748	-1.00001	-1.00046	-1.56082	-0.233547	-0.233547	11	-0.064874	0	0.064874	0.000000000000000E+000	0.064874	0.0000000E+000	0.000000000000000E+000	0.00156154
2	0	0	0	0	0	0	175.548	-1.00001	-1.00048	-1.55968	-0.234795	-0.234795	11	-0.0652209	0	0.0652209	0.000000000000000E+000	0.0652209	0.0000000E+000	0.000000000000000E+000	0.00156043
2	0	0	0	0	0	0	176.348	-1.00001	-1.0004	-1.56141	-0.236044	-0.236044	11	-0.0655679	0	0.0655679	0.000000000000000E+000	0.0655679	0.0000000E+000	0.000000000000000E+000	0.00156204
2	0	0	0	0	0	0	177.148	-1.00001	-1.00027	-1.56344	-0.237292	-0.237292	11	-0.0659144	0	0.0659144	0.000000000000000E+000	0.0659144	0.0000000E+000	0.000000000000000E+000	0.00156386
2	0	0	0	0	0	0	177.948	-1.00001	-1.00034	-1.55511	-0.238538	-0.238538	11	-0.0662606	0	0.0662606	0.000000000000000E+000	0.0662606	0.0000000E+000	0.000000000000000E+000	0.00155564
2	0	0	0	0	0	0	178.748	-1.00001	-1.00042	-1.55658	-0.239783	-0.239783	11	-0.0666063	0	0.0666063	0.000000000000000E+000	0.0666063	0.0000000E+000	0.000000000000000E+000	0.00155724
2	0	0	0	0	0	0	179.548	-1.00001	-1.00032	-1.5595	-0.241029	-0.241029	11	-0.0669525	0	0.0669525	0.000000000000000E+000	0.0669525	0.0000000E+000	0.000000000000000E+000	0.00156001
2	0	0	0	0	0	0	180.348	-1.00001	-1.00034	-1.6534	-0.242319	-0.242319	11	-0.0673109	0	0.0673109	0.000000000000000E+000	0.0673109	0.0000000E+000	0.000000000000000E+000	0.00165396
2	0	0	0	0	0	0	181.148	-1.00001	-1.00029	-1.67124	-0.243652	-0.243652	11	-0.0676812	0	0.0676812	0.000000000000000E+000	0.0676812	0.0000000E+000	0.000000000000000E+000	0.00167172
2	0	0	0	0	0	0	181.948	-1.00001	-1.00036	-1.66894	-0.244987	-0.244987	11	-0.0680518	0	0.0680518	0.000000000000000E+000	0.0680518	0.0000000E+000	0.000000000000000E+000	0.00166954
2	0	0	0	0	0	0	182.748	-1.00001	-1.00023	-1.68617	-0.246336	-0.246336	11	-0.0684266	0	0.0684266	0.000000000000000E+000	0.0684266	0.0000000E+000	0.000000000000000E+000	0.00168655
2	0	0	0	0	0	0	183.548	-1.00001	-1.00031	-1.68645	-0.247686	-0.247686	11	-0.0688015	0	0.0688015	0.000000000000000E+000	0.0688015	0.0000000E+000	0.000000000000000E+000	0.00168696
2	0	0	0	0	0	0	184.348	-1.00001	-1.00034	-1.6876	-0.249035	-0.249035	11	-0.0691764	0	0.0691764	0.000000000000000E+000	0.0691764	0.0000000E+000	0.000000000000000E+000	0.00168818
2	0	0	0	0	0	0	185.148	-1.00001	-1.00019	-1.68773	-0.250385	-0.250385	11	-0.0695514	0	0.0695514	0.000000000000000E+000	0.0695514	0.0000000E+000	0.000000000000000E+000	0.00168805
2	0	0	0	0	0	0	185.948	-1.00001	-1.00042	-1.68608	-0.251734	-0.251734	11	-0.0699261	0	0.0699261	0.000000000000000E+000	0.0699261	0.0000000E+000	0.000000000000000E+000	0.00168678
2	0	0	0	0	0	0	186.748	-1.00001	-1.00044	-1.68381	-0.253085	-0.253085	11	-0.0703014	0	0.0703014	0.000000000000000E+000	0.0703014	0.0000000E+000	0.000000000000000E+000	0.00168455
2	0	0	0	0	0	0	187.548	-1.00001	-1.00046	-1.68046	-0.254431	-0.254431	11	-0.0706754	0	0.0706754	0.000000000000000E+000	0.0706754	0.0000000E+000	0.000000000000000E+000	0.00168123
2	0	0	0	0	0	0	188.348	-1.00001	-1.00046	-1.67286	-0.255774	-0.255774	11	-0.0710483	0	0.0710483	0.000000000000000E+000	0.0710483	0.0000000E+000	0.000000000000000E+000	0.00167362
2	0	0	0	0	0	0	189.148	-1.00001	-1.00027	-1.67555	-0.257114	-0.257114	11	-0.0714205	0	0.0714205	0.000000000000000E+000	0.0714205	0.0000000E+000	0.000000000000000E+000	0.00167599
2	0	0	0	0	0	0	189.948	-1.00001	-1.00031	-1.67174	-0.258452	-0.258452	11	-0.0717921	0	0.0717921	0.000000000000000E+000	0.0717921	0.0000000E+000	0.000000000000000E+000	0.00167225
2	0	0	0	0	0	0	190.748	-1.00001	-1.00017	-1.90801	-0.259875	-0.259875	11	-0.0721875	0	0.0721875	0.000000000000000E+000	0.0721875	0.0000000E+000	0.000000000000000E+000	0.00190834
2	0	0	0	0	0	0	191.548	-1.00001	-1.00053	-1.87689	-0.261391	-0.261391	11	-0.0726087	0	0.0726087	0.000000000000000E+000	0.0726087	0.0000000E+000	0.000000000000000E+000	0.00187789
2	0	0	0	0	0	0	192.348	-1.00001	-1.00046	-1.87377	-0.262891	-0.262891	11	-0.0730252	0	0.0730252	0.000000000000000E+000	0.0730252	0.0000000E+000	0.000000000000000E+000	0.00187463
2	0	0	0	0	0	0	193.148	-1.00001	-1.00034	-1.92234	-0.264412	-0.264412	11	-0.0734478	0	0.0734478	0.000000000000000E+000	0.0734478	0.0000000E+000	0.000000000000000E+000	0.00192301
2	0	0	0	0	0	0	193.948	-1.00001	-1.00052	-1.93201	-0.265955	-0.265955	11	-0.0738763	0	0.0738763	0.000000000000000E+000	0.0738763	0.0000000E+000	0.000000000000000E+000	0.001933
2	0	0	0	0	0	0	194.748	-1.00001	-1.00036	-1.93584	-0.267502	-0.267502	11	-0.0743061	0	0.0743061	0.000000000000000E+000	0.0743061	0.0000000E+000	0.000000000000000E+000	0.00193654
2	0	0	0	0	0	0	195.548	-1.00001	-1.00034	-1.94578	-0.269053	-0.269053	11	-0.0747369	0	0.0747369	0.000000000000000E+000	0.0747369	0.0000000E+000	0.000000000000000E+000	0.00194645
2	0	0	0	0	0	0	196.348	-1.00001	-1.00053	-1.93897	-0.270602	-0.270602	11	-0.0751672	0	0.0751672	0.000000000000000E+000	0.0751672	0.0000000E+000	0.000000000000000E+000	0.00194001
2	0	0	0	0	0	0	197.148	-1.00001	-1.0005	-1.93843	-0.272148	-0.272148	11	-0.0755967	0	0.0755967	0.000000000000000E+000	0.0755967	0.0000000E+000	0.000000000000000E+000	0.00193939
2	0	0	0	0	0	0	197.948	-1.00001	-1.00031	-1.92716	-0.273696	-0.273696	11	-0.0760267	0	0.0760267	0.000000000000000E+000	0.0760267	0.0000000E+000	0.000000000000000E+000	0.00192774
2	0	0	0	0	0	0	198.748	-1.00001	-1.00046	-1.9226	-0.275236	-0.275236	11	-0.0764544	0	0.0764544	0.000000000000000E+000	0.0764544	0.0000000E+000	0.000000000000000E+000	0.00192348
2	0	0	0	0	0	0	199.548	-1.00001	-1.00036	-1.92307	-0.27678	-0.27678	11	-0.0768833	0	0.0768833	0.000000000000000E+000	0.0768833	0.0000000E+000	0.000000000000000E+000	0.00192376
2	0	0	0	0	0	0	200.348	-1.00001	-1.0004	-1.9269	-0.278321	-0.278321	11	-0.0773115	0	0.0773115	0.000000000000000E+000	0.0773115	0.0000000E+000	0.000000000000000E+000	0.00192767
2	0	0	0	0	0	0	201.148	-1.00001	-1.0005	-1.92319	-0.279859	-0.279859	11	-0.0777385	0	0.0777385	0.000000000000000E+000	0.0777385	0.0000000E+000	0.000000000000000E+000	0.00192414
2	0	0	0	0	0	0	201.948	-1.00001	-1.00032	-1.91282	-0.281392	-0.281392	11	-0.0781645	0	0.0781645	0.000000000000000E+000	0.0781645	0.0000000E+000	0.000000000000000E+000	0.00191344
2	0	0	0	0	0	0	202.748	-1.00001	-1.00044	-1.92638	-0.282924	-0.282924	11	-0.0785901	0	0.0785901	0.000000000000000E+000	0.0785901	0.0000000E+000	0.000000000000000E+000	0.00192723
2	0	0	0	0	0	0	203.548	-1.00001	-1.0005	-1.92891	-0.284467	-0.284467	11	-0.0790185	0	0.0790185	0.000000000000000E+000	0.0790185	0.0000000E+000	0.000000000000000E+000	0.00192987
2	0	0	0	0	0	0	204.348	-1.00001	-1.00021	-1.93045	-0.28601	-0.28601	11	-0.0794472	0	0.0794472	0.000000000000000E+000	0.0794472	0.0000000E+000	0.000000000000000E+000	0.00193085
2	0	0	0	0	0	0	205.148	-1.00001	-1.00038	-1.93896	-0.287562	-0.287562	11	-0.0798784	0	0.0798784	0.000000000000000E+000	0.0798784	0.0000000E+000	0.000000000000000E+000	0.0019397
2	0	0	0	0	0	0	205.948	-1.00001	-1.00044	-1.93218	-0.289109	-0.289109	11	-0.0803081	0	0.0803081	0.000000000000000E+000	0.0803081	0.0000000E+000	0.000000000000000E+000	0.00193303
2	0	0	0	0	0	0	206.748	-1.00001	-1.00036	-1.92641	-0.290651	-0.290651	11	-0.0807365	0	0.0807365	0.000000000000000E+000	0.0807365	0.0000000E+000	0.000000000000000E+000	0.00192711
2	0	0	0	0	0	0	207.548	-1.00001	-1.00036	-1.92377	-0.29219	-0.29219	11	-0.0811639	0	0.0811639	0.000000000000000E+000	0.0811639	0.0000000E+000	0.000000000000000E+000	0.00192446
2	0	0	0	0	0	0	208.348	-1.00001	-1.00032	-1.92078	-0.293731	-0.293731	11	-0.0815919	0	0.0815919	0.000000000000000E+000	0.0815919	0.0000000E+000	0.000000000000000E+000	0.0019214
2	0	0	0	0	0	0	209.148	-1.00001	-1.00031	-1.92246	-0.295269	-0.295269	11	-0.0820192	0	0.0820192	0.000000000000000E+000	0.0820192	0.0000000E+000	0.000000000000000E+000	0.00192305
2	0	0	0	0	0	0	209.948	-1.00001	-1.00019	-1.93155	-0.296812	-0.296812	11	-0.0824477	0	0.0824477	0.000000000000000E+000	0.0824477	0.0000000E+000	0.000000000000000E+000	0.00193192
2	0	0	0	0	0	0	210.748	-1.00001	-1.00038	-1.9354	-0.298356	-0.298356	11	-0.0828767	0	0.0828767	0.000000000000000E+000	0.0828767	0.0000000E+000	0.000000000000000E+000	0.00193614
2	0	0	0	0	0	0	211.548	-1.00001	-1.00046	-1.94664	-0.299908	-0.299908	11	-0.0833079	0	0.0833079	0.000000000000000E+000	0.0833079	0.0000000E+000	0.000000000000000E+000	0.00194753
2	0	0	0	0	0	0	212.259	-1.00001	-1.00025	-1.94687	-0.30129	-0.30129	11	-0.0836916	0	0.0836916	0.000000000000000E+000	0.0836916	0.0000000E+000	0.000000000000000E+000	0.00194735