File: ZnPVAECH_1 04-22-22-Zn -1 PVA ECH 1600 rpm K-L RDE1 gc_02_CA_C05.mpt
EC-Lab ASCII FILE
Nb header lines : 63

Chronoamperometry / Chronocoulometry

Run on channel : 5 (SN 6729)
User :
CE vs. WE compliance from -10 V to 10 V
Electrode connection : standard
Potential control : Ewe
Ewe ctrl range : min = -2.50 V, max = 2.50 V
Safety Limits :
	Do not start on E overload
Acquisition started on : 04/04/2022 13:04:27.143
Technique started on : 04/04/2022 13:04:32.291
Loaded Setting File :  NONE
Saved on :
	File : 04-22-22-Zn PVA ECH 1600 rpm K-L RDE1 gc_02_CA_C05.mpr
	Directory : \\research-scb.egr.msu.edu\research-scb\Mindy\Koutecky Levich\Zn PVA\ECH\04-04-22\
	Host : 35.9.136.210
Device : VSP (SN 0012)
Address : 35.9.137.65
EC-Lab for windows v11.43 (software)
Internet server v11.40 (firmware)
Command interpretor v11.40 (firmware)
Electrode material : Au/Pd
Initial state :
Electrolyte : NaCl (0.2M)
Comments : Fe(CN)63-/Fe(CN)64- 5.10-3 M
Reference electrode : SCE Saturated Calomel Electrode (0.241 V)
Electrode surface area : 0.196 cm²
Characteristic mass : 0.001 g
Equivalent Weight : 0.000 g/eq.
Density : 0.000 g/cm3
Volume (V) : 0.001 cm³
Cycle Definition : Charge/Discharge alternance
Ei (V)              -1.000
vs.                 Ref
ti (h:m:s)          0:10:0.0000
Imax                pass
unit Imax           mA
Imin                pass
unit Imin           mA
dQM                 0.000
unit dQM            mA.h
record              <I>
dI                  5.000
unit dI             µA
dQ                  0.000
unit dQ             mA.h
dt (s)              0.1000
dta (s)             0.1000
E range min (V)     -2.500
E range max (V)     2.500
I Range             Auto
I Range min         Unset
I Range max         Unset
I Range init        Unset
Bandwidth           5
goto Ns'            0
nc cycles           0

mode	ox/red	error	control changes	Ns changes	counter inc.	Ns	time/s	control/V	Ewe/V	<I>/mA	dQ/C	(Q-Qo)/C	I Range	Q charge/discharge/mA.h	half cycle	Q discharge/mA.h	Q charge/mA.h	Capacity/mA.h	Efficiency/%	cycle number	P/W
2	0	0	1	0	0	0	5.1484	-1.00001	-0.999752	-7.21053	-0.000142367	-0.000142367	11	-3.95465e-05	0	3.95465e-05	0.000000000000000E+000	3.95465e-05	0.0000000E+000	0.000000000000000E+000	0.00720874
2	0	0	1	0	0	0	6.0484	-1.00001	-1.00042	-6.97976	-0.00645793	-0.00645793	11	-0.00179387	0	0.00179387	0.000000000000000E+000	0.00179387	0.0000000E+000	0.000000000000000E+000	0.00698269
2	0	0	1	0	0	0	6.9484	-1.00001	-1.00019	-6.96233	-0.012737	-0.012737	11	-0.00353806	0	0.00353806	0.000000000000000E+000	0.00353806	0.0000000E+000	0.000000000000000E+000	0.00696366
2	0	0	1	0	0	0	7.8484	-1.00001	-1.00021	-6.96059	-0.0190054	-0.0190054	11	-0.00527928	0	0.00527928	0.000000000000000E+000	0.00527928	0.0000000E+000	0.000000000000000E+000	0.00696205
2	0	0	1	0	0	0	8.7484	-1.00001	-1.00029	-6.95524	-0.0252708	-0.0252708	11	-0.00701967	0	0.00701967	0.000000000000000E+000	0.00701967	0.0000000E+000	0.000000000000000E+000	0.00695723
2	0	0	1	0	0	0	9.6484	-1.00001	-0.999962	-6.95623	-0.0315335	-0.0315335	11	-0.00875931	0	0.00875931	0.000000000000000E+000	0.00875931	0.0000000E+000	0.000000000000000E+000	0.00695596
2	0	0	1	0	0	0	10.5484	-1.00001	-1.00042	-6.95251	-0.0377971	-0.0377971	11	-0.0104992	0	0.0104992	0.000000000000000E+000	0.0104992	0.0000000E+000	0.000000000000000E+000	0.00695543
2	0	0	1	0	0	0	11.4484	-1.00001	-1.00046	-6.94971	-0.0440561	-0.0440561	11	-0.0122378	0	0.0122378	0.000000000000000E+000	0.0122378	0.0000000E+000	0.000000000000000E+000	0.00695289
2	0	0	1	0	0	0	12.3484	-1.00001	-1.00071	-6.95138	-0.0503147	-0.0503147	11	-0.0139763	0	0.0139763	0.000000000000000E+000	0.0139763	0.0000000E+000	0.000000000000000E+000	0.00695629
2	0	0	1	0	0	0	13.2484	-1.00001	-1.0008	-6.95732	-0.0565724	-0.0565724	11	-0.0157146	0	0.0157146	0.000000000000000E+000	0.0157146	0.0000000E+000	0.000000000000000E+000	0.00696289
2	0	0	1	0	0	0	14.1484	-1.00001	-1.00046	-6.9634	-0.0628366	-0.0628366	11	-0.0174546	0	0.0174546	0.000000000000000E+000	0.0174546	0.0000000E+000	0.000000000000000E+000	0.00696659
2	0	0	1	0	0	0	15.0484	-1.00001	-1.00065	-6.97064	-0.0691039	-0.0691039	11	-0.0191955	0	0.0191955	0.000000000000000E+000	0.0191955	0.0000000E+000	0.000000000000000E+000	0.00697516
2	0	0	1	0	0	0	15.9484	-1.00001	-0.999904	-6.96225	-0.0753687	-0.0753687	11	-0.0209358	0	0.0209358	0.000000000000000E+000	0.0209358	0.0000000E+000	0.000000000000000E+000	0.00696159
2	0	0	1	0	0	0	16.8484	-1.00001	-1.00057	-6.96751	-0.0816333	-0.0816333	11	-0.0226759	0	0.0226759	0.000000000000000E+000	0.0226759	0.0000000E+000	0.000000000000000E+000	0.0069715
2	0	0	1	0	0	0	17.7484	-1.00001	-1.00029	-6.96284	-0.0878953	-0.0878953	11	-0.0244154	0	0.0244154	0.000000000000000E+000	0.0244154	0.0000000E+000	0.000000000000000E+000	0.00696484
2	0	0	1	0	0	0	18.6484	-1.00001	-1.00019	-6.96041	-0.0941532	-0.0941532	11	-0.0261537	0	0.0261537	0.000000000000000E+000	0.0261537	0.0000000E+000	0.000000000000000E+000	0.00696174
2	0	0	1	0	0	0	19.5484	-1.00001	-1.00055	-6.95596	-0.100411	-0.100411	11	-0.0278919	0	0.0278919	0.000000000000000E+000	0.0278919	0.0000000E+000	0.000000000000000E+000	0.00695981
2	0	0	1	0	0	0	20.4484	-1.00001	-1.00053	-6.2881	-0.106312	-0.106312	11	-0.0295312	0	0.0295312	0.000000000000000E+000	0.0295312	0.0000000E+000	0.000000000000000E+000	0.00629146
2	0	0	1	0	0	0	21.3484	-1.00001	-1.00088	-6.51992	-0.112059	-0.112059	11	-0.0311275	0	0.0311275	0.000000000000000E+000	0.0311275	0.0000000E+000	0.000000000000000E+000	0.00652564
2	0	0	1	0	0	0	22.2484	-1.00001	-0.999943	-6.60696	-0.117981	-0.117981	11	-0.0327724	0	0.0327724	0.000000000000000E+000	0.0327724	0.0000000E+000	0.000000000000000E+000	0.00660658
2	0	0	1	0	0	0	23.1484	-1.00001	-1.00042	-6.63711	-0.123937	-0.123937	11	-0.034427	0	0.034427	0.000000000000000E+000	0.034427	0.0000000E+000	0.000000000000000E+000	0.0066399
2	0	0	1	0	0	0	24.0484	-1.00001	-1.00032	-6.61393	-0.129899	-0.129899	11	-0.0360831	0	0.0360831	0.000000000000000E+000	0.0360831	0.0000000E+000	0.000000000000000E+000	0.00661608
2	0	0	1	0	0	0	24.9484	-1.00001	-1.00052	-6.63555	-0.135863	-0.135863	11	-0.0377396	0	0.0377396	0.000000000000000E+000	0.0377396	0.0000000E+000	0.000000000000000E+000	0.00663897
2	0	0	1	0	0	0	25.8484	-1.00001	-1.00032	-6.61066	-0.141822	-0.141822	11	-0.039395	0	0.039395	0.000000000000000E+000	0.039395	0.0000000E+000	0.000000000000000E+000	0.0066128
2	0	0	1	0	0	0	26.7484	-1.00001	-1.00023	-6.63338	-0.147784	-0.147784	11	-0.041051	0	0.041051	0.000000000000000E+000	0.041051	0.0000000E+000	0.000000000000000E+000	0.0066349
2	0	0	1	0	0	0	27.6484	-1.00001	-1.00038	-6.62061	-0.153743	-0.153743	11	-0.0427065	0	0.0427065	0.000000000000000E+000	0.0427065	0.0000000E+000	0.000000000000000E+000	0.00662313
2	0	0	1	0	0	0	28.5484	-1.00001	-0.999828	-6.62746	-0.159703	-0.159703	11	-0.044362	0	0.044362	0.000000000000000E+000	0.044362	0.0000000E+000	0.000000000000000E+000	0.00662632
2	0	0	1	0	0	0	29.4484	-1.00001	-1.00038	-6.62258	-0.165665	-0.165665	11	-0.0460181	0	0.0460181	0.000000000000000E+000	0.0460181	0.0000000E+000	0.000000000000000E+000	0.00662511
2	0	0	1	0	0	0	30.3484	-1.00001	-0.999866	-6.4497	-0.171581	-0.171581	11	-0.0476613	0	0.0476613	0.000000000000000E+000	0.0476613	0.0000000E+000	0.000000000000000E+000	0.00644884
2	0	0	1	0	0	0	31.2484	-1.00001	-1.00084	-6.29796	-0.177258	-0.177258	11	-0.0492384	0	0.0492384	0.000000000000000E+000	0.0492384	0.0000000E+000	0.000000000000000E+000	0.00630325
2	0	0	1	0	0	0	32.1484	-1.00001	-1.00015	-6.30111	-0.182922	-0.182922	11	-0.0508118	0	0.0508118	0.000000000000000E+000	0.0508118	0.0000000E+000	0.000000000000000E+000	0.00630207
2	0	0	1	0	0	0	33.0484	-1.00001	-1.00048	-6.30699	-0.188599	-0.188599	11	-0.0523887	0	0.0523887	0.000000000000000E+000	0.0523887	0.0000000E+000	0.000000000000000E+000	0.00631
2	0	0	1	0	0	0	33.9484	-1.00001	-1.00032	-6.30846	-0.194274	-0.194274	11	-0.053965	0	0.053965	0.000000000000000E+000	0.053965	0.0000000E+000	0.000000000000000E+000	0.0063105
2	0	0	1	0	0	0	34.8484	-1.00001	-1.00036	-6.30772	-0.199949	-0.199949	11	-0.0555414	0	0.0555414	0.000000000000000E+000	0.0555414	0.0000000E+000	0.000000000000000E+000	0.00631001
2	0	0	1	0	0	0	35.7484	-1.00001	-1.00065	-6.31267	-0.205626	-0.205626	11	-0.0571182	0	0.0571182	0.000000000000000E+000	0.0571182	0.0000000E+000	0.000000000000000E+000	0.00631677
2	0	0	1	0	0	0	36.6484	-1.00001	-1.00015	-6.30986	-0.211302	-0.211302	11	-0.0586949	0	0.0586949	0.000000000000000E+000	0.0586949	0.0000000E+000	0.000000000000000E+000	0.00631083
2	0	0	1	0	0	0	37.5484	-1.00001	-1.00052	-6.31209	-0.216984	-0.216984	11	-0.0602733	0	0.0602733	0.000000000000000E+000	0.0602733	0.0000000E+000	0.000000000000000E+000	0.00631534
2	0	0	1	0	0	0	38.4484	-1.00001	-1.00036	-6.31374	-0.222663	-0.222663	11	-0.0618509	0	0.0618509	0.000000000000000E+000	0.0618509	0.0000000E+000	0.000000000000000E+000	0.00631603
2	0	0	1	0	0	0	39.3484	-1.00001	-1.00032	-6.31495	-0.228345	-0.228345	11	-0.063429	0	0.063429	0.000000000000000E+000	0.063429	0.0000000E+000	0.000000000000000E+000	0.006317
2	0	0	1	0	0	0	40.2484	-1.00001	-1.00038	-6.30807	-0.234026	-0.234026	11	-0.0650073	0	0.0650073	0.000000000000000E+000	0.0650073	0.0000000E+000	0.000000000000000E+000	0.00631047
2	0	0	1	0	0	0	41.1484	-1.00001	-1.00057	-6.30524	-0.239704	-0.239704	11	-0.0665844	0	0.0665844	0.000000000000000E+000	0.0665844	0.0000000E+000	0.000000000000000E+000	0.00630885
2	0	0	1	0	0	0	42.0484	-1.00001	-1.00059	-6.30881	-0.245382	-0.245382	11	-0.0681615	0	0.0681615	0.000000000000000E+000	0.0681615	0.0000000E+000	0.000000000000000E+000	0.00631254
2	0	0	1	0	0	0	42.9484	-1.00001	-1.00034	-6.3077	-0.25106	-0.25106	11	-0.0697389	0	0.0697389	0.000000000000000E+000	0.0697389	0.0000000E+000	0.000000000000000E+000	0.00630987
2	0	0	1	0	0	0	43.8484	-1.00001	-1.00034	-6.31628	-0.256737	-0.256737	11	-0.0713159	0	0.0713159	0.000000000000000E+000	0.0713159	0.0000000E+000	0.000000000000000E+000	0.00631845
2	0	0	1	0	0	0	44.7484	-1.00001	-1.0004	-5.9581	-0.262263	-0.262263	11	-0.0728509	0	0.0728509	0.000000000000000E+000	0.0728509	0.0000000E+000	0.000000000000000E+000	0.00596049
2	0	0	1	0	0	0	45.6484	-1.00001	-1.00027	-5.50989	-0.267323	-0.267323	11	-0.0742565	0	0.0742565	0.000000000000000E+000	0.0742565	0.0000000E+000	0.000000000000000E+000	0.00551136
2	0	0	1	0	0	0	46.5484	-1.00001	-1.00031	-5.47661	-0.27224	-0.27224	11	-0.0756222	0	0.0756222	0.000000000000000E+000	0.0756222	0.0000000E+000	0.000000000000000E+000	0.00547828
2	0	0	1	0	0	0	47.4484	-1.00001	-1.00038	-5.45853	-0.277134	-0.277134	11	-0.0769816	0	0.0769816	0.000000000000000E+000	0.0769816	0.0000000E+000	0.000000000000000E+000	0.00546062
2	0	0	1	0	0	0	48.3484	-1.00001	-1.00034	-5.46027	-0.282027	-0.282027	11	-0.0783408	0	0.0783408	0.000000000000000E+000	0.0783408	0.0000000E+000	0.000000000000000E+000	0.00546214
2	0	0	1	0	0	0	49.2484	-1.00001	-1.00055	-5.45557	-0.28692	-0.28692	11	-0.0796999	0	0.0796999	0.000000000000000E+000	0.0796999	0.0000000E+000	0.000000000000000E+000	0.00545859
2	0	0	1	0	0	0	50.1484	-1.00001	-1.00036	-5.45006	-0.291812	-0.291812	11	-0.081059	0	0.081059	0.000000000000000E+000	0.081059	0.0000000E+000	0.000000000000000E+000	0.00545203
2	0	0	1	0	0	0	51.0484	-1.00001	-1.00069	-5.44307	-0.296703	-0.296703	11	-0.0824175	0	0.0824175	0.000000000000000E+000	0.0824175	0.0000000E+000	0.000000000000000E+000	0.00544681
2	0	0	1	0	0	0	51.9484	-1.00001	-1.00034	-5.43391	-0.301591	-0.301591	11	-0.0837753	0	0.0837753	0.000000000000000E+000	0.0837753	0.0000000E+000	0.000000000000000E+000	0.00543578
2	0	0	1	0	0	0	52.8484	-1.00001	-1.00052	-5.42764	-0.30648	-0.30648	11	-0.0851333	0	0.0851333	0.000000000000000E+000	0.0851333	0.0000000E+000	0.000000000000000E+000	0.00543043
2	0	0	1	0	0	0	53.7484	-1.00001	-1.00042	-5.41532	-0.311371	-0.311371	11	-0.0864918	0	0.0864918	0.000000000000000E+000	0.0864918	0.0000000E+000	0.000000000000000E+000	0.0054176
2	0	0	1	0	0	0	54.6484	-1.00001	-1.00038	-5.41007	-0.31626	-0.31626	11	-0.0878499	0	0.0878499	0.000000000000000E+000	0.0878499	0.0000000E+000	0.000000000000000E+000	0.00541213
2	0	0	1	0	0	0	55.5484	-1.00001	-1.00032	-5.39685	-0.321145	-0.321145	11	-0.0892069	0	0.0892069	0.000000000000000E+000	0.0892069	0.0000000E+000	0.000000000000000E+000	0.0053986
2	0	0	1	0	0	0	56.4484	-1.00001	-1.00023	-5.39187	-0.32603	-0.32603	11	-0.0905639	0	0.0905639	0.000000000000000E+000	0.0905639	0.0000000E+000	0.000000000000000E+000	0.00539311
2	0	0	1	0	0	0	57.3484	-1.00001	-1.00017	-5.39042	-0.330912	-0.330912	11	-0.0919199	0	0.0919199	0.000000000000000E+000	0.0919199	0.0000000E+000	0.000000000000000E+000	0.00539135
2	0	0	1	0	0	0	58.2484	-1.00001	-1.0005	-5.39541	-0.335792	-0.335792	11	-0.0932757	0	0.0932757	0.000000000000000E+000	0.0932757	0.0000000E+000	0.000000000000000E+000	0.00539808
2	0	0	1	0	0	0	59.1484	-1.00001	-1.00029	-5.40327	-0.340667	-0.340667	11	-0.0946297	0	0.0946297	0.000000000000000E+000	0.0946297	0.0000000E+000	0.000000000000000E+000	0.00540482
2	0	0	1	0	0	0	60.0484	-1.00001	-1.00044	-5.41509	-0.345553	-0.345553	11	-0.0959869	0	0.0959869	0.000000000000000E+000	0.0959869	0.0000000E+000	0.000000000000000E+000	0.00541747
2	0	0	1	0	0	0	60.9484	-1.00001	-1.00038	-5.42463	-0.350438	-0.350438	11	-0.0973439	0	0.0973439	0.000000000000000E+000	0.0973439	0.0000000E+000	0.000000000000000E+000	0.0054267
2	0	0	1	0	0	0	61.8484	-1.00001	-1.00046	-5.42584	-0.355324	-0.355324	11	-0.0987011	0	0.0987011	0.000000000000000E+000	0.0987011	0.0000000E+000	0.000000000000000E+000	0.00542833
2	0	0	1	0	0	0	62.7484	-1.00001	-1.00027	-5.44335	-0.36021	-0.36021	11	-0.100058	0	0.100058	0.000000000000000E+000	0.100058	0.0000000E+000	0.000000000000000E+000	0.0054448
2	0	0	1	0	0	0	63.6484	-1.00001	-1.00027	-5.45008	-0.365098	-0.365098	11	-0.101416	0	0.101416	0.000000000000000E+000	0.101416	0.0000000E+000	0.000000000000000E+000	0.00545153
2	0	0	1	0	0	0	64.5484	-1.00001	-1.0008	-5.45817	-0.369986	-0.369986	11	-0.102774	0	0.102774	0.000000000000000E+000	0.102774	0.0000000E+000	0.000000000000000E+000	0.00546254
2	0	0	1	0	0	0	65.4484	-1.00001	-1.00036	-5.45583	-0.37487	-0.37487	11	-0.104131	0	0.104131	0.000000000000000E+000	0.104131	0.0000000E+000	0.000000000000000E+000	0.0054578
2	0	0	1	0	0	0	66.3484	-1.00001	-1.00029	-5.45817	-0.379756	-0.379756	11	-0.105488	0	0.105488	0.000000000000000E+000	0.105488	0.0000000E+000	0.000000000000000E+000	0.00545973
2	0	0	1	0	0	0	67.2484	-1.00001	-1.00055	-4.74201	-0.384247	-0.384247	11	-0.106735	0	0.106735	0.000000000000000E+000	0.106735	0.0000000E+000	0.000000000000000E+000	0.00474464
2	0	0	1	0	0	0	68.1484	-1.00001	-1.00057	-4.65232	-0.38847	-0.38847	11	-0.107908	0	0.107908	0.000000000000000E+000	0.107908	0.0000000E+000	0.000000000000000E+000	0.00465498
2	0	0	1	0	0	0	69.0484	-1.00001	-1.00038	-4.69609	-0.392679	-0.392679	11	-0.109077	0	0.109077	0.000000000000000E+000	0.109077	0.0000000E+000	0.000000000000000E+000	0.00469788
2	0	0	1	0	0	0	69.9484	-1.00001	-1.00034	-4.68266	-0.396884	-0.396884	11	-0.110246	0	0.110246	0.000000000000000E+000	0.110246	0.0000000E+000	0.000000000000000E+000	0.00468427
2	0	0	1	0	0	0	70.8484	-1.00001	-1.00031	-4.64972	-0.401088	-0.401088	11	-0.111413	0	0.111413	0.000000000000000E+000	0.111413	0.0000000E+000	0.000000000000000E+000	0.00465114
2	0	0	1	0	0	0	71.7484	-1.00001	-1.00034	-4.67115	-0.40529	-0.40529	11	-0.112581	0	0.112581	0.000000000000000E+000	0.112581	0.0000000E+000	0.000000000000000E+000	0.00467275
2	0	0	1	0	0	0	72.6484	-1.00001	-1.00067	-4.69355	-0.409494	-0.409494	11	-0.113748	0	0.113748	0.000000000000000E+000	0.113748	0.0000000E+000	0.000000000000000E+000	0.00469668
2	0	0	1	0	0	0	73.5484	-1.00001	-1.00021	-4.65714	-0.413696	-0.413696	11	-0.114915	0	0.114915	0.000000000000000E+000	0.114915	0.0000000E+000	0.000000000000000E+000	0.00465812
2	0	0	1	0	0	0	74.4484	-1.00001	-1.00027	-4.64479	-0.417895	-0.417895	11	-0.116082	0	0.116082	0.000000000000000E+000	0.116082	0.0000000E+000	0.000000000000000E+000	0.00464603
2	0	0	1	0	0	0	75.3484	-1.00001	-1.00061	-4.69535	-0.422098	-0.422098	11	-0.11725	0	0.11725	0.000000000000000E+000	0.11725	0.0000000E+000	0.000000000000000E+000	0.00469822
2	0	0	1	0	0	0	76.2484	-1.00001	-1.00042	-4.66993	-0.426299	-0.426299	11	-0.118416	0	0.118416	0.000000000000000E+000	0.118416	0.0000000E+000	0.000000000000000E+000	0.00467189
2	0	0	1	0	0	0	77.1484	-1.00001	-1.00052	-4.63727	-0.430494	-0.430494	11	-0.119582	0	0.119582	0.000000000000000E+000	0.119582	0.0000000E+000	0.000000000000000E+000	0.00463966
2	0	0	1	0	0	0	78.0484	-1.00001	-1.00032	-4.66521	-0.434693	-0.434693	11	-0.120748	0	0.120748	0.000000000000000E+000	0.120748	0.0000000E+000	0.000000000000000E+000	0.00466672
2	0	0	1	0	0	0	78.9484	-1.00001	-1.00017	-4.67951	-0.438889	-0.438889	11	-0.121914	0	0.121914	0.000000000000000E+000	0.121914	0.0000000E+000	0.000000000000000E+000	0.00468032
2	0	0	1	0	0	0	79.8484	-1.00001	-1.00036	-4.64585	-0.443084	-0.443084	11	-0.123079	0	0.123079	0.000000000000000E+000	0.123079	0.0000000E+000	0.000000000000000E+000	0.00464753
2	0	0	1	0	0	0	80.7484	-1.00001	-1.00021	-4.64726	-0.44728	-0.44728	11	-0.124244	0	0.124244	0.000000000000000E+000	0.124244	0.0000000E+000	0.000000000000000E+000	0.00464824
2	0	0	1	0	0	0	81.6484	-1.00001	-1.00029	-3.84035	-0.451122	-0.451122	11	-0.125312	0	0.125312	0.000000000000000E+000	0.125312	0.0000000E+000	0.000000000000000E+000	0.00384145
2	0	0	1	0	0	0	82.5484	-1.00001	-1.00038	-3.84164	-0.454516	-0.454516	11	-0.126254	0	0.126254	0.000000000000000E+000	0.126254	0.0000000E+000	0.000000000000000E+000	0.00384311
2	0	0	1	0	0	0	83.4484	-1.00001	-1.00031	-3.90357	-0.45801	-0.45801	11	-0.127225	0	0.127225	0.000000000000000E+000	0.127225	0.0000000E+000	0.000000000000000E+000	0.00390477
2	0	0	1	0	0	0	84.3484	-1.00001	-1.00031	-3.89779	-0.461522	-0.461522	11	-0.1282	0	0.1282	0.000000000000000E+000	0.1282	0.0000000E+000	0.000000000000000E+000	0.00389898
2	0	0	1	0	0	0	85.2484	-1.00001	-1.00017	-3.89023	-0.465031	-0.465031	11	-0.129175	0	0.129175	0.000000000000000E+000	0.129175	0.0000000E+000	0.000000000000000E+000	0.0038909
2	0	0	1	0	0	0	86.1484	-1.00001	-1.00044	-3.90554	-0.468541	-0.468541	11	-0.13015	0	0.13015	0.000000000000000E+000	0.13015	0.0000000E+000	0.000000000000000E+000	0.00390726
2	0	0	1	0	0	0	87.0484	-1.00001	-1.0004	-3.91849	-0.472055	-0.472055	11	-0.131126	0	0.131126	0.000000000000000E+000	0.131126	0.0000000E+000	0.000000000000000E+000	0.00392006
2	0	0	1	0	0	0	87.9484	-1.00001	-1.0004	-3.90319	-0.47557	-0.47557	11	-0.132103	0	0.132103	0.000000000000000E+000	0.132103	0.0000000E+000	0.000000000000000E+000	0.00390476
2	0	0	1	0	0	0	88.8484	-1.00001	-1.00032	-3.89845	-0.479084	-0.479084	11	-0.133079	0	0.133079	0.000000000000000E+000	0.133079	0.0000000E+000	0.000000000000000E+000	0.00389972
2	0	0	1	0	0	0	89.7484	-1.00001	-1.00032	-3.89679	-0.482598	-0.482598	11	-0.134055	0	0.134055	0.000000000000000E+000	0.134055	0.0000000E+000	0.000000000000000E+000	0.00389805
2	0	0	1	0	0	0	90.6484	-1.00001	-1.00032	-3.92121	-0.486114	-0.486114	11	-0.135032	0	0.135032	0.000000000000000E+000	0.135032	0.0000000E+000	0.000000000000000E+000	0.00392248
2	0	0	1	0	0	0	91.5484	-1.00001	-1.00032	-3.90952	-0.48963	-0.48963	11	-0.136008	0	0.136008	0.000000000000000E+000	0.136008	0.0000000E+000	0.000000000000000E+000	0.00391078
2	0	0	1	0	0	0	92.4484	-1.00001	-1.00034	-3.89769	-0.493145	-0.493145	11	-0.136985	0	0.136985	0.000000000000000E+000	0.136985	0.0000000E+000	0.000000000000000E+000	0.00389903
2	0	0	1	0	0	0	93.3484	-1.00001	-1.00036	-3.8974	-0.496661	-0.496661	11	-0.137961	0	0.137961	0.000000000000000E+000	0.137961	0.0000000E+000	0.000000000000000E+000	0.00389881
2	0	0	1	0	0	0	94.2484	-1.00001	-1.00048	-3.91281	-0.500179	-0.500179	11	-0.138938	0	0.138938	0.000000000000000E+000	0.138938	0.0000000E+000	0.000000000000000E+000	0.00391468
2	0	0	1	0	0	0	95.1484	-1.00001	-1.00044	-3.92083	-0.503697	-0.503697	11	-0.139916	0	0.139916	0.000000000000000E+000	0.139916	0.0000000E+000	0.000000000000000E+000	0.00392255
2	0	0	1	0	0	0	96.0484	-1.00001	-1.00023	-3.9073	-0.507214	-0.507214	11	-0.140893	0	0.140893	0.000000000000000E+000	0.140893	0.0000000E+000	0.000000000000000E+000	0.0039082
2	0	0	1	0	0	0	96.9484	-1.00001	-1.0001	-3.65354	-0.510642	-0.510642	11	-0.141845	0	0.141845	0.000000000000000E+000	0.141845	0.0000000E+000	0.000000000000000E+000	0.00365389
2	0	0	1	0	0	0	97.8484	-1.00001	-1.00038	-3.28202	-0.513722	-0.513722	11	-0.142701	0	0.142701	0.000000000000000E+000	0.142701	0.0000000E+000	0.000000000000000E+000	0.00328328
2	0	0	1	0	0	0	98.7484	-1.00001	-1.00038	-3.2041	-0.51663	-0.51663	11	-0.143508	0	0.143508	0.000000000000000E+000	0.143508	0.0000000E+000	0.000000000000000E+000	0.00320532
2	0	0	1	0	0	0	99.6484	-1.00001	-1.00032	-3.18653	-0.519504	-0.519504	11	-0.144307	0	0.144307	0.000000000000000E+000	0.144307	0.0000000E+000	0.000000000000000E+000	0.00318756
2	0	0	1	0	0	0	100.548	-1.00001	-1.00038	-3.19096	-0.522376	-0.522376	11	-0.145104	0	0.145104	0.000000000000000E+000	0.145104	0.0000000E+000	0.000000000000000E+000	0.00319218
2	0	0	1	0	0	0	101.448	-1.00001	-1.00027	-3.19456	-0.525249	-0.525249	11	-0.145903	0	0.145903	0.000000000000000E+000	0.145903	0.0000000E+000	0.000000000000000E+000	0.00319541
2	0	0	1	0	0	0	102.348	-1.00001	-1.00038	-3.20393	-0.528128	-0.528128	11	-0.146702	0	0.146702	0.000000000000000E+000	0.146702	0.0000000E+000	0.000000000000000E+000	0.00320515
2	0	0	1	0	0	0	103.248	-1.00001	-1.00032	-3.19451	-0.531007	-0.531007	11	-0.147502	0	0.147502	0.000000000000000E+000	0.147502	0.0000000E+000	0.000000000000000E+000	0.00319555
2	0	0	1	0	0	0	104.148	-1.00001	-1.00042	-3.20617	-0.533888	-0.533888	11	-0.148302	0	0.148302	0.000000000000000E+000	0.148302	0.0000000E+000	0.000000000000000E+000	0.00320752
2	0	0	1	0	0	0	105.048	-1.00001	-1.00046	-3.19781	-0.536767	-0.536767	11	-0.149102	0	0.149102	0.000000000000000E+000	0.149102	0.0000000E+000	0.000000000000000E+000	0.00319927
2	0	0	1	0	0	0	105.948	-1.00001	-1.0004	-3.20757	-0.539648	-0.539648	11	-0.149902	0	0.149902	0.000000000000000E+000	0.149902	0.0000000E+000	0.000000000000000E+000	0.00320885
2	0	0	1	0	0	0	106.848	-1.00001	-1.00044	-3.19996	-0.542529	-0.542529	11	-0.150703	0	0.150703	0.000000000000000E+000	0.150703	0.0000000E+000	0.000000000000000E+000	0.00320137
2	0	0	1	0	0	0	107.748	-1.00001	-1.00031	-3.20556	-0.54541	-0.54541	11	-0.151503	0	0.151503	0.000000000000000E+000	0.151503	0.0000000E+000	0.000000000000000E+000	0.00320654
2	0	0	1	0	0	0	108.648	-1.00001	-1.0004	-3.19781	-0.548291	-0.548291	11	-0.152303	0	0.152303	0.000000000000000E+000	0.152303	0.0000000E+000	0.000000000000000E+000	0.00319909
2	0	0	1	0	0	0	109.548	-1.00001	-1.00034	-3.19768	-0.551169	-0.551169	11	-0.153103	0	0.153103	0.000000000000000E+000	0.153103	0.0000000E+000	0.000000000000000E+000	0.00319878
2	0	0	1	0	0	0	110.448	-1.00001	-1.00052	-3.19587	-0.554049	-0.554049	11	-0.153902	0	0.153902	0.000000000000000E+000	0.153902	0.0000000E+000	0.000000000000000E+000	0.00319751
2	0	0	1	0	0	0	111.348	-1.00001	-1.00053	-3.19468	-0.556926	-0.556926	11	-0.154702	0	0.154702	0.000000000000000E+000	0.154702	0.0000000E+000	0.000000000000000E+000	0.00319638
2	0	0	1	0	0	0	112.248	-1.00001	-1.00044	-3.19936	-0.559806	-0.559806	11	-0.155502	0	0.155502	0.000000000000000E+000	0.155502	0.0000000E+000	0.000000000000000E+000	0.00320076
2	0	0	1	0	0	0	113.148	-1.00001	-1.00023	-3.19347	-0.562685	-0.562685	11	-0.156301	0	0.156301	0.000000000000000E+000	0.156301	0.0000000E+000	0.000000000000000E+000	0.0031942
2	0	0	1	0	0	0	114.048	-1.00001	-1.00034	-3.20111	-0.565566	-0.565566	11	-0.157102	0	0.157102	0.000000000000000E+000	0.157102	0.0000000E+000	0.000000000000000E+000	0.00320221
2	0	0	1	0	0	0	114.948	-1.00001	-1.00038	-3.17927	-0.568436	-0.568436	11	-0.157899	0	0.157899	0.000000000000000E+000	0.157899	0.0000000E+000	0.000000000000000E+000	0.00318048
2	0	0	1	0	0	0	115.848	-1.00001	-1.00032	-3.19735	-0.571309	-0.571309	11	-0.158697	0	0.158697	0.000000000000000E+000	0.158697	0.0000000E+000	0.000000000000000E+000	0.00319839
2	0	0	1	0	0	0	116.748	-1.00001	-1.00046	-3.18926	-0.574182	-0.574182	11	-0.159495	0	0.159495	0.000000000000000E+000	0.159495	0.0000000E+000	0.000000000000000E+000	0.00319072
2	0	0	1	0	0	0	117.648	-1.00001	-1.0004	-3.21146	-0.577059	-0.577059	11	-0.160294	0	0.160294	0.000000000000000E+000	0.160294	0.0000000E+000	0.000000000000000E+000	0.00321274
2	0	0	1	0	0	0	118.548	-1.00001	-1.00032	-3.45689	-0.580054	-0.580054	11	-0.161126	0	0.161126	0.000000000000000E+000	0.161126	0.0000000E+000	0.000000000000000E+000	0.00345801
2	0	0	1	0	0	0	119.448	-1.00001	-1.00044	-3.73476	-0.583316	-0.583316	11	-0.162032	0	0.162032	0.000000000000000E+000	0.162032	0.0000000E+000	0.000000000000000E+000	0.0037364
2	0	0	1	0	0	0	120.348	-1.00001	-1.00038	-3.78692	-0.586703	-0.586703	11	-0.162973	0	0.162973	0.000000000000000E+000	0.162973	0.0000000E+000	0.000000000000000E+000	0.00378837
2	0	0	1	0	0	0	121.248	-1.00001	-1.00048	-3.791	-0.590101	-0.590101	11	-0.163917	0	0.163917	0.000000000000000E+000	0.163917	0.0000000E+000	0.000000000000000E+000	0.00379281
2	0	0	1	0	0	0	122.148	-1.00001	-1.00048	-3.78566	-0.593499	-0.593499	11	-0.164861	0	0.164861	0.000000000000000E+000	0.164861	0.0000000E+000	0.000000000000000E+000	0.00378746
2	0	0	1	0	0	0	123.048	-1.00001	-1.00017	-3.77078	-0.596892	-0.596892	11	-0.165803	0	0.165803	0.000000000000000E+000	0.165803	0.0000000E+000	0.000000000000000E+000	0.00377143
2	0	0	1	0	0	0	123.948	-1.00001	-1.00038	-3.76482	-0.600279	-0.600279	11	-0.166744	0	0.166744	0.000000000000000E+000	0.166744	0.0000000E+000	0.000000000000000E+000	0.00376625
2	0	0	1	0	0	0	124.848	-1.00001	-1.00046	-3.76788	-0.603672	-0.603672	11	-0.167687	0	0.167687	0.000000000000000E+000	0.167687	0.0000000E+000	0.000000000000000E+000	0.00376961
2	0	0	1	0	0	0	125.748	-1.00001	-1.00046	-3.76434	-0.607063	-0.607063	11	-0.168629	0	0.168629	0.000000000000000E+000	0.168629	0.0000000E+000	0.000000000000000E+000	0.00376607
2	0	0	1	0	0	0	126.648	-1.00001	-1.00023	-3.7633	-0.610457	-0.610457	11	-0.169571	0	0.169571	0.000000000000000E+000	0.169571	0.0000000E+000	0.000000000000000E+000	0.00376416
2	0	0	1	0	0	0	127.548	-1.00001	-1.00038	-3.76621	-0.613853	-0.613853	11	-0.170515	0	0.170515	0.000000000000000E+000	0.170515	0.0000000E+000	0.000000000000000E+000	0.00376765
2	0	0	1	0	0	0	128.448	-1.00001	-1.00006	-3.76801	-0.61725	-0.61725	11	-0.171458	0	0.171458	0.000000000000000E+000	0.171458	0.0000000E+000	0.000000000000000E+000	0.00376823
2	0	0	1	0	0	0	129.348	-1.00001	-1.00061	-3.76931	-0.620647	-0.620647	11	-0.172402	0	0.172402	0.000000000000000E+000	0.172402	0.0000000E+000	0.000000000000000E+000	0.00377161
2	0	0	1	0	0	0	130.248	-1.00001	-1.00015	-3.76283	-0.624043	-0.624043	11	-0.173345	0	0.173345	0.000000000000000E+000	0.173345	0.0000000E+000	0.000000000000000E+000	0.0037634
2	0	0	1	0	0	0	131.148	-1.00001	-1.0004	-3.76833	-0.627439	-0.627439	11	-0.174289	0	0.174289	0.000000000000000E+000	0.174289	0.0000000E+000	0.000000000000000E+000	0.00376984
2	0	0	1	0	0	0	132.048	-1.00001	-1.0004	-3.77628	-0.630834	-0.630834	11	-0.175232	0	0.175232	0.000000000000000E+000	0.175232	0.0000000E+000	0.000000000000000E+000	0.00377779
2	0	0	1	0	0	0	132.948	-1.00001	-1.00038	-3.78044	-0.634227	-0.634227	11	-0.176174	0	0.176174	0.000000000000000E+000	0.176174	0.0000000E+000	0.000000000000000E+000	0.00378188
2	0	0	1	0	0	0	133.848	-1.00001	-1.00032	-3.76911	-0.63761	-0.63761	11	-0.177114	0	0.177114	0.000000000000000E+000	0.177114	0.0000000E+000	0.000000000000000E+000	0.00377034
2	0	0	1	0	0	0	134.748	-1.00001	-1.00034	-3.75976	-0.640985	-0.640985	11	-0.178051	0	0.178051	0.000000000000000E+000	0.178051	0.0000000E+000	0.000000000000000E+000	0.00376105
2	0	0	1	0	0	0	135.648	-1.00001	-1.00029	-3.76515	-0.644363	-0.644363	11	-0.17899	0	0.17899	0.000000000000000E+000	0.17899	0.0000000E+000	0.000000000000000E+000	0.00376623
2	0	0	1	0	0	0	136.548	-1.00001	-1.00029	-3.76443	-0.647749	-0.647749	11	-0.17993	0	0.17993	0.000000000000000E+000	0.17993	0.0000000E+000	0.000000000000000E+000	0.00376551
2	0	0	1	0	0	0	137.448	-1.00001	-1.00061	-3.76706	-0.651141	-0.651141	11	-0.180872	0	0.180872	0.000000000000000E+000	0.180872	0.0000000E+000	0.000000000000000E+000	0.00376936
2	0	0	1	0	0	0	138.348	-1.00001	-1.00027	-4.57049	-0.65483	-0.65483	11	-0.181897	0	0.181897	0.000000000000000E+000	0.181897	0.0000000E+000	0.000000000000000E+000	0.00457171
2	0	0	1	0	0	0	139.248	-1.00001	-1.00046	-4.61511	-0.658997	-0.658997	11	-0.183055	0	0.183055	0.000000000000000E+000	0.183055	0.0000000E+000	0.000000000000000E+000	0.00461722
2	0	0	1	0	0	0	140.148	-1.00001	-1.00042	-4.65118	-0.663176	-0.663176	11	-0.184215	0	0.184215	0.000000000000000E+000	0.184215	0.0000000E+000	0.000000000000000E+000	0.00465313
2	0	0	1	0	0	0	141.048	-1.00001	-1.00053	-4.65636	-0.667353	-0.667353	11	-0.185376	0	0.185376	0.000000000000000E+000	0.185376	0.0000000E+000	0.000000000000000E+000	0.00465885
2	0	0	1	0	0	0	141.948	-1.00001	-1.0004	-4.62707	-0.671529	-0.671529	11	-0.186536	0	0.186536	0.000000000000000E+000	0.186536	0.0000000E+000	0.000000000000000E+000	0.00462893
2	0	0	1	0	0	0	142.848	-1.00001	-1.00048	-4.62915	-0.675703	-0.675703	11	-0.187695	0	0.187695	0.000000000000000E+000	0.187695	0.0000000E+000	0.000000000000000E+000	0.00463136
2	0	0	1	0	0	0	143.748	-1.00001	-1.00044	-4.66519	-0.679881	-0.679881	11	-0.188856	0	0.188856	0.000000000000000E+000	0.188856	0.0000000E+000	0.000000000000000E+000	0.00466724
2	0	0	1	0	0	0	144.648	-1.00001	-1.00042	-4.63614	-0.684057	-0.684057	11	-0.190016	0	0.190016	0.000000000000000E+000	0.190016	0.0000000E+000	0.000000000000000E+000	0.00463809
2	0	0	1	0	0	0	145.548	-1.00001	-1.0005	-4.61905	-0.688233	-0.688233	11	-0.191176	0	0.191176	0.000000000000000E+000	0.191176	0.0000000E+000	0.000000000000000E+000	0.00462134
2	0	0	1	0	0	0	146.448	-1.00001	-1.0005	-4.65364	-0.692413	-0.692413	11	-0.192337	0	0.192337	0.000000000000000E+000	0.192337	0.0000000E+000	0.000000000000000E+000	0.00465595
2	0	0	1	0	0	0	147.348	-1.00001	-1.00038	-4.66579	-0.696594	-0.696594	11	-0.193498	0	0.193498	0.000000000000000E+000	0.193498	0.0000000E+000	0.000000000000000E+000	0.00466758
2	0	0	1	0	0	0	148.248	-1.00001	-1.00057	-4.6253	-0.700772	-0.700772	11	-0.194659	0	0.194659	0.000000000000000E+000	0.194659	0.0000000E+000	0.000000000000000E+000	0.00462795
2	0	0	1	0	0	0	149.148	-1.00001	-1.00038	-4.62688	-0.704947	-0.704947	11	-0.195819	0	0.195819	0.000000000000000E+000	0.195819	0.0000000E+000	0.000000000000000E+000	0.00462864
2	0	0	1	0	0	0	150.048	-1.00001	-1.00046	-4.6759	-0.709124	-0.709124	11	-0.196979	0	0.196979	0.000000000000000E+000	0.196979	0.0000000E+000	0.000000000000000E+000	0.00467804
2	0	0	1	0	0	0	150.948	-1.00001	-1.00061	-4.63366	-0.713299	-0.713299	11	-0.198139	0	0.198139	0.000000000000000E+000	0.198139	0.0000000E+000	0.000000000000000E+000	0.00463649
2	0	0	1	0	0	0	151.848	-1.00001	-1.00025	-5.21645	-0.717706	-0.717706	11	-0.199363	0	0.199363	0.000000000000000E+000	0.199363	0.0000000E+000	0.000000000000000E+000	0.00521775
2	0	0	1	0	0	0	152.748	-1.00001	-1.00004	-5.33914	-0.722518	-0.722518	11	-0.2007	0	0.2007	0.000000000000000E+000	0.2007	0.0000000E+000	0.000000000000000E+000	0.00533934
2	0	0	1	0	0	0	153.648	-1.00001	-1.00019	-5.3529	-0.727357	-0.727357	11	-0.202044	0	0.202044	0.000000000000000E+000	0.202044	0.0000000E+000	0.000000000000000E+000	0.00535392
2	0	0	1	0	0	0	154.548	-1.00001	-1.00021	-5.36311	-0.732201	-0.732201	11	-0.203389	0	0.203389	0.000000000000000E+000	0.203389	0.0000000E+000	0.000000000000000E+000	0.00536424
2	0	0	1	0	0	0	155.448	-1.00001	-1.00021	-5.35904	-0.737041	-0.737041	11	-0.204734	0	0.204734	0.000000000000000E+000	0.204734	0.0000000E+000	0.000000000000000E+000	0.00536017
2	0	0	1	0	0	0	156.348	-1.00001	-1.00061	-5.36883	-0.741881	-0.741881	11	-0.206078	0	0.206078	0.000000000000000E+000	0.206078	0.0000000E+000	0.000000000000000E+000	0.00537211
2	0	0	1	0	0	0	157.248	-1.00001	-1.00011	-5.37844	-0.746717	-0.746717	11	-0.207421	0	0.207421	0.000000000000000E+000	0.207421	0.0000000E+000	0.000000000000000E+000	0.00537905
2	0	0	1	0	0	0	158.148	-1.00001	-1.00027	-5.38134	-0.751555	-0.751555	11	-0.208765	0	0.208765	0.000000000000000E+000	0.208765	0.0000000E+000	0.000000000000000E+000	0.00538278
2	0	0	1	0	0	0	159.048	-1.00001	-1.00044	-5.39026	-0.75639	-0.75639	11	-0.210108	0	0.210108	0.000000000000000E+000	0.210108	0.0000000E+000	0.000000000000000E+000	0.00539263
2	0	0	1	0	0	0	159.948	-1.00001	-1.00008	-5.40368	-0.761223	-0.761223	11	-0.211451	0	0.211451	0.000000000000000E+000	0.211451	0.0000000E+000	0.000000000000000E+000	0.00540409
2	0	0	1	0	0	0	160.848	-1.00001	-1.00044	-5.41823	-0.76606	-0.76606	11	-0.212795	0	0.212795	0.000000000000000E+000	0.212795	0.0000000E+000	0.000000000000000E+000	0.00542061
2	0	0	1	0	0	0	161.748	-1.00001	-1.00031	-5.4085	-0.7709	-0.7709	11	-0.214139	0	0.214139	0.000000000000000E+000	0.214139	0.0000000E+000	0.000000000000000E+000	0.00541015
2	0	0	1	0	0	0	162.648	-1.00001	-1.00053	-5.40682	-0.775735	-0.775735	11	-0.215482	0	0.215482	0.000000000000000E+000	0.215482	0.0000000E+000	0.000000000000000E+000	0.00540971
2	0	0	1	0	0	0	163.548	-1.00001	-1.00046	-5.39479	-0.780569	-0.780569	11	-0.216825	0	0.216825	0.000000000000000E+000	0.216825	0.0000000E+000	0.000000000000000E+000	0.00539726
2	0	0	1	0	0	0	164.448	-1.00001	-1.00011	-5.34973	-0.785395	-0.785395	11	-0.218165	0	0.218165	0.000000000000000E+000	0.218165	0.0000000E+000	0.000000000000000E+000	0.00535034
2	0	0	1	0	0	0	165.348	-1.00001	-1.00067	-5.37678	-0.790218	-0.790218	11	-0.219505	0	0.219505	0.000000000000000E+000	0.219505	0.0000000E+000	0.000000000000000E+000	0.00538038
2	0	0	1	0	0	0	166.248	-1.00001	-1.0004	-5.36911	-0.79505	-0.79505	11	-0.220847	0	0.220847	0.000000000000000E+000	0.220847	0.0000000E+000	0.000000000000000E+000	0.00537126
2	0	0	1	0	0	0	167.148	-1.00001	-1.00052	-5.35385	-0.799879	-0.799879	11	-0.222189	0	0.222189	0.000000000000000E+000	0.222189	0.0000000E+000	0.000000000000000E+000	0.00535661
2	0	0	1	0	0	0	168.048	-1.00001	-1.00027	-5.32841	-0.804697	-0.804697	11	-0.223527	0	0.223527	0.000000000000000E+000	0.223527	0.0000000E+000	0.000000000000000E+000	0.00532983
2	0	0	1	0	0	0	168.948	-1.00001	-1.00017	-5.32315	-0.809511	-0.809511	11	-0.224864	0	0.224864	0.000000000000000E+000	0.224864	0.0000000E+000	0.000000000000000E+000	0.00532407
2	0	0	1	0	0	0	169.848	-1.00001	-1.00055	-5.33505	-0.814324	-0.814324	11	-0.226201	0	0.226201	0.000000000000000E+000	0.226201	0.0000000E+000	0.000000000000000E+000	0.005338
2	0	0	1	0	0	0	170.748	-1.00001	-1.00031	-6.13002	-0.819451	-0.819451	11	-0.227625	0	0.227625	0.000000000000000E+000	0.227625	0.0000000E+000	0.000000000000000E+000	0.00613189
2	0	0	1	0	0	0	171.648	-1.00001	-1.00021	-6.20898	-0.825034	-0.825034	11	-0.229176	0	0.229176	0.000000000000000E+000	0.229176	0.0000000E+000	0.000000000000000E+000	0.00621028
2	0	0	1	0	0	0	172.548	-1.00001	-1.00027	-6.21512	-0.830625	-0.830625	11	-0.230729	0	0.230729	0.000000000000000E+000	0.230729	0.0000000E+000	0.000000000000000E+000	0.00621678
2	0	0	1	0	0	0	173.448	-1.00001	-1.00048	-6.22163	-0.836219	-0.836219	11	-0.232283	0	0.232283	0.000000000000000E+000	0.232283	0.0000000E+000	0.000000000000000E+000	0.0062246
2	0	0	1	0	0	0	174.348	-1.00001	-1.00025	-6.22923	-0.841817	-0.841817	11	-0.233838	0	0.233838	0.000000000000000E+000	0.233838	0.0000000E+000	0.000000000000000E+000	0.00623077
2	0	0	1	0	0	0	175.248	-1.00001	-1.00053	-6.2233	-0.847415	-0.847415	11	-0.235393	0	0.235393	0.000000000000000E+000	0.235393	0.0000000E+000	0.000000000000000E+000	0.00622662
2	0	0	1	0	0	0	176.148	-1.00001	-1.0004	-6.21734	-0.853012	-0.853012	11	-0.236948	0	0.236948	0.000000000000000E+000	0.236948	0.0000000E+000	0.000000000000000E+000	0.00621984
2	0	0	1	0	0	0	177.048	-1.00001	-1.00027	-6.22191	-0.858609	-0.858609	11	-0.238502	0	0.238502	0.000000000000000E+000	0.238502	0.0000000E+000	0.000000000000000E+000	0.00622357
2	0	0	1	0	0	0	177.948	-1.00001	-1.00038	-6.21184	-0.864204	-0.864204	11	-0.240057	0	0.240057	0.000000000000000E+000	0.240057	0.0000000E+000	0.000000000000000E+000	0.00621421
2	0	0	1	0	0	0	178.848	-1.00001	-1.0004	-6.21915	-0.869796	-0.869796	11	-0.24161	0	0.24161	0.000000000000000E+000	0.24161	0.0000000E+000	0.000000000000000E+000	0.00622164
2	0	0	1	0	0	0	179.748	-1.00001	-1.00032	-6.22106	-0.875397	-0.875397	11	-0.243166	0	0.243166	0.000000000000000E+000	0.243166	0.0000000E+000	0.000000000000000E+000	0.00622308
2	0	0	1	0	0	0	180.648	-1.00001	-1.00082	-6.20914	-0.880988	-0.880988	11	-0.244719	0	0.244719	0.000000000000000E+000	0.244719	0.0000000E+000	0.000000000000000E+000	0.00621424
2	0	0	1	0	0	0	181.548	-1.00001	-1.00029	-6.21995	-0.886583	-0.886583	11	-0.246273	0	0.246273	0.000000000000000E+000	0.246273	0.0000000E+000	0.000000000000000E+000	0.00622173
2	0	0	1	0	0	0	182.448	-1.00001	-1.00076	-6.21086	-0.892174	-0.892174	11	-0.247826	0	0.247826	0.000000000000000E+000	0.247826	0.0000000E+000	0.000000000000000E+000	0.0062156
2	0	0	1	0	0	0	183.348	-1.00001	-1.00023	-6.20752	-0.897762	-0.897762	11	-0.249378	0	0.249378	0.000000000000000E+000	0.249378	0.0000000E+000	0.000000000000000E+000	0.00620894
2	0	0	1	0	0	0	184.248	-1.00001	-1.00046	-6.19987	-0.903346	-0.903346	11	-0.25093	0	0.25093	0.000000000000000E+000	0.25093	0.0000000E+000	0.000000000000000E+000	0.00620271
2	0	0	1	0	0	0	185.148	-1.00001	-1.00038	-6.1982	-0.908926	-0.908926	11	-0.252479	0	0.252479	0.000000000000000E+000	0.252479	0.0000000E+000	0.000000000000000E+000	0.00620056
2	0	0	1	0	0	0	186.048	-1.00001	-1.00053	-6.20457	-0.914509	-0.914509	11	-0.25403	0	0.25403	0.000000000000000E+000	0.25403	0.0000000E+000	0.000000000000000E+000	0.00620788
2	0	0	1	0	0	0	186.948	-1.00001	-1.00034	-6.20258	-0.92009	-0.92009	11	-0.255581	0	0.255581	0.000000000000000E+000	0.255581	0.0000000E+000	0.000000000000000E+000	0.00620471
2	0	0	1	0	0	0	187.848	-1.00001	-1.00032	-6.51941	-0.92589	-0.92589	11	-0.257192	0	0.257192	0.000000000000000E+000	0.257192	0.0000000E+000	0.000000000000000E+000	0.00652153
2	0	0	1	0	0	0	188.748	-1.00001	-0.999637	-6.52956	-0.93176	-0.93176	11	-0.258822	0	0.258822	0.000000000000000E+000	0.258822	0.0000000E+000	0.000000000000000E+000	0.0065272
2	0	0	1	0	0	0	189.648	-1.00001	-1.00023	-6.51651	-0.937624	-0.937624	11	-0.260451	0	0.260451	0.000000000000000E+000	0.260451	0.0000000E+000	0.000000000000000E+000	0.006518
2	0	0	1	0	0	0	190.548	-1.00001	-1.00048	-6.51719	-0.94349	-0.94349	11	-0.262081	0	0.262081	0.000000000000000E+000	0.262081	0.0000000E+000	0.000000000000000E+000	0.0065203
2	0	0	1	0	0	0	191.448	-1.00001	-1.00036	-6.51635	-0.949353	-0.949353	11	-0.263709	0	0.263709	0.000000000000000E+000	0.263709	0.0000000E+000	0.000000000000000E+000	0.00651871
2	0	0	1	0	0	0	192.348	-1.00001	-1.00101	-6.49934	-0.955212	-0.955212	11	-0.265337	0	0.265337	0.000000000000000E+000	0.265337	0.0000000E+000	0.000000000000000E+000	0.00650592
2	0	0	1	0	0	0	193.248	-1.00001	-1.00044	-6.5206	-0.96107	-0.96107	11	-0.266964	0	0.266964	0.000000000000000E+000	0.266964	0.0000000E+000	0.000000000000000E+000	0.00652346
2	0	0	1	0	0	0	194.148	-1.00001	-1.00046	-6.48416	-0.966922	-0.966922	11	-0.268589	0	0.268589	0.000000000000000E+000	0.268589	0.0000000E+000	0.000000000000000E+000	0.00648713
2	0	0	1	0	0	0	195.048	-1.00001	-1.00046	-6.51852	-0.972776	-0.972776	11	-0.270216	0	0.270216	0.000000000000000E+000	0.270216	0.0000000E+000	0.000000000000000E+000	0.0065215
2	0	0	1	0	0	0	195.948	-1.00001	-1.00023	-6.48902	-0.978626	-0.978626	11	-0.271841	0	0.271841	0.000000000000000E+000	0.271841	0.0000000E+000	0.000000000000000E+000	0.00649051
2	0	0	1	0	0	0	196.848	-1.00001	-0.999752	-6.5087	-0.984479	-0.984479	11	-0.273466	0	0.273466	0.000000000000000E+000	0.273466	0.0000000E+000	0.000000000000000E+000	0.00650708
2	0	0	1	0	0	0	197.748	-1.00001	-1.0005	-6.49677	-0.99033	-0.99033	11	-0.275092	0	0.275092	0.000000000000000E+000	0.275092	0.0000000E+000	0.000000000000000E+000	0.0065
2	0	0	1	0	0	0	198.648	-1.00001	-1.00029	-6.49795	-0.996181	-0.996181	11	-0.276717	0	0.276717	0.000000000000000E+000	0.276717	0.0000000E+000	0.000000000000000E+000	0.00649981
2	0	0	1	0	0	0	199.548	-1.00001	-1.00057	-6.51043	-1.00204	-1.00204	11	-0.278343	0	0.278343	0.000000000000000E+000	0.278343	0.0000000E+000	0.000000000000000E+000	0.00651416
2	0	0	1	0	0	0	200.448	-1.00001	-1.00025	-6.4949	-1.00789	-1.00789	11	-0.279969	0	0.279969	0.000000000000000E+000	0.279969	0.0000000E+000	0.000000000000000E+000	0.00649651
2	0	0	1	0	0	0	201.348	-1.00001	-1.00034	-6.51498	-1.01374	-1.01374	11	-0.281595	0	0.281595	0.000000000000000E+000	0.281595	0.0000000E+000	0.000000000000000E+000	0.00651722
2	0	0	1	0	0	0	202.248	-1.00001	-1.00057	-6.48561	-1.01959	-1.01959	11	-0.28322	0	0.28322	0.000000000000000E+000	0.28322	0.0000000E+000	0.000000000000000E+000	0.00648932
2	0	0	1	0	0	0	203.148	-1.00001	-1.00036	-6.51563	-1.02545	-1.02545	11	-0.284847	0	0.284847	0.000000000000000E+000	0.284847	0.0000000E+000	0.000000000000000E+000	0.00651799
2	0	0	1	0	0	0	204.048	-1.00001	-1.00034	-6.49097	-1.0313	-1.0313	11	-0.286472	0	0.286472	0.000000000000000E+000	0.286472	0.0000000E+000	0.000000000000000E+000	0.0064932
2	0	0	1	0	0	0	204.948	-1.00001	-1.00111	-6.51287	-1.03715	-1.03715	11	-0.288098	0	0.288098	0.000000000000000E+000	0.288098	0.0000000E+000	0.000000000000000E+000	0.00652008
2	0	0	1	0	0	0	205.848	-1.00001	-1.00038	-6.50708	-1.04301	-1.04301	11	-0.289725	0	0.289725	0.000000000000000E+000	0.289725	0.0000000E+000	0.000000000000000E+000	0.00650957
2	0	0	1	0	0	0	206.748	-1.00001	-1.00027	-6.49528	-1.04886	-1.04886	11	-0.29135	0	0.29135	0.000000000000000E+000	0.29135	0.0000000E+000	0.000000000000000E+000	0.00649702
2	0	0	1	0	0	0	207.648	-1.00001	-1.00015	-6.51221	-1.05471	-1.05471	11	-0.292976	0	0.292976	0.000000000000000E+000	0.292976	0.0000000E+000	0.000000000000000E+000	0.00651321
2	0	0	1	0	0	0	208.548	-1.00001	-1.0005	-6.48481	-1.06056	-1.06056	11	-0.294601	0	0.294601	0.000000000000000E+000	0.294601	0.0000000E+000	0.000000000000000E+000	0.00648803
2	0	0	1	0	0	0	209.448	-1.00001	-1.00071	-6.51801	-1.06641	-1.06641	11	-0.296226	0	0.296226	0.000000000000000E+000	0.296226	0.0000000E+000	0.000000000000000E+000	0.00652262
2	0	0	1	0	0	0	210.348	-1.00001	-1.00011	-6.48623	-1.07226	-1.07226	11	-0.297851	0	0.297851	0.000000000000000E+000	0.297851	0.0000000E+000	0.000000000000000E+000	0.00648697
2	0	0	1	0	0	0	211.248	-1.00001	-1.00032	-6.51809	-1.07811	-1.07811	11	-0.299476	0	0.299476	0.000000000000000E+000	0.299476	0.0000000E+000	0.000000000000000E+000	0.0065202
2	0	0	1	0	0	0	212.148	-1.00001	-1.00038	-6.49408	-1.08397	-1.08397	11	-0.301101	0	0.301101	0.000000000000000E+000	0.301101	0.0000000E+000	0.000000000000000E+000	0.00649656
2	0	0	1	0	0	0	213.048	-1.00001	-1.00017	-6.50187	-1.08982	-1.08982	11	-0.302727	0	0.302727	0.000000000000000E+000	0.302727	0.0000000E+000	0.000000000000000E+000	0.00650298
2	0	0	1	0	0	0	213.948	-1.00001	-1.00059	-6.49545	-1.09566	-1.09566	11	-0.304351	0	0.304351	0.000000000000000E+000	0.304351	0.0000000E+000	0.000000000000000E+000	0.0064993
2	0	0	1	0	0	0	214.848	-1.00001	-1.00019	-6.48313	-1.10151	-1.10151	11	-0.305974	0	0.305974	0.000000000000000E+000	0.305974	0.0000000E+000	0.000000000000000E+000	0.00648436
2	0	0	1	0	0	0	215.748	-1.00001	-1.00053	-6.49687	-1.10734	-1.10734	11	-0.307595	0	0.307595	0.000000000000000E+000	0.307595	0.0000000E+000	0.000000000000000E+000	0.00650034
2	0	0	1	0	0	0	216.648	-1.00001	-1.00059	-6.80619	-1.11348	-1.11348	11	-0.3093	0	0.3093	0.000000000000000E+000	0.3093	0.0000000E+000	0.000000000000000E+000	0.00681021
2	0	0	1	0	0	0	217.548	-1.00001	-1.00044	-6.79912	-1.11961	-1.11961	11	-0.311003	0	0.311003	0.000000000000000E+000	0.311003	0.0000000E+000	0.000000000000000E+000	0.00680211
2	0	0	1	0	0	0	218.448	-1.00001	-1.00013	-6.79908	-1.12574	-1.12574	11	-0.312705	0	0.312705	0.000000000000000E+000	0.312705	0.0000000E+000	0.000000000000000E+000	0.00679999
2	0	0	1	0	0	0	219.348	-1.00001	-1.00015	-6.7958	-1.13186	-1.13186	11	-0.314405	0	0.314405	0.000000000000000E+000	0.314405	0.0000000E+000	0.000000000000000E+000	0.00679683
2	0	0	1	0	0	0	220.248	-1.00001	-1.00017	-6.79591	-1.13798	-1.13798	11	-0.316106	0	0.316106	0.000000000000000E+000	0.316106	0.0000000E+000	0.000000000000000E+000	0.00679708
2	0	0	1	0	0	0	221.148	-1.00001	-1.00059	-6.79144	-1.1441	-1.1441	11	-0.317807	0	0.317807	0.000000000000000E+000	0.317807	0.0000000E+000	0.000000000000000E+000	0.00679546
2	0	0	1	0	0	0	222.048	-1.00001	-1.0005	-6.81053	-1.15023	-1.15023	11	-0.319509	0	0.319509	0.000000000000000E+000	0.319509	0.0000000E+000	0.000000000000000E+000	0.00681391
2	0	0	1	0	0	0	222.948	-1.00001	-1.00036	-6.80222	-1.15636	-1.15636	11	-0.32121	0	0.32121	0.000000000000000E+000	0.32121	0.0000000E+000	0.000000000000000E+000	0.00680469
2	0	0	1	0	0	0	223.848	-1.00001	-1.00015	-6.80313	-1.16248	-1.16248	11	-0.322912	0	0.322912	0.000000000000000E+000	0.322912	0.0000000E+000	0.000000000000000E+000	0.00680417
2	0	0	1	0	0	0	224.748	-1.00001	-1.00032	-6.79991	-1.16861	-1.16861	11	-0.324613	0	0.324613	0.000000000000000E+000	0.324613	0.0000000E+000	0.000000000000000E+000	0.00680212
2	0	0	1	0	0	0	225.648	-1.00001	-1.00034	-6.80235	-1.17473	-1.17473	11	-0.326314	0	0.326314	0.000000000000000E+000	0.326314	0.0000000E+000	0.000000000000000E+000	0.00680468
2	0	0	1	0	0	0	226.548	-1.00001	-1.00034	-6.8068	-1.18086	-1.18086	11	-0.328016	0	0.328016	0.000000000000000E+000	0.328016	0.0000000E+000	0.000000000000000E+000	0.00680913
2	0	0	1	0	0	0	227.448	-1.00001	-1.00034	-6.80956	-1.18699	-1.18699	11	-0.329719	0	0.329719	0.000000000000000E+000	0.329719	0.0000000E+000	0.000000000000000E+000	0.0068119
2	0	0	1	0	0	0	228.348	-1.00001	-1.0004	-6.8131	-1.19312	-1.19312	11	-0.331422	0	0.331422	0.000000000000000E+000	0.331422	0.0000000E+000	0.000000000000000E+000	0.00681583
2	0	0	1	0	0	0	229.248	-1.00001	-1.00027	-6.80338	-1.19925	-1.19925	11	-0.333125	0	0.333125	0.000000000000000E+000	0.333125	0.0000000E+000	0.000000000000000E+000	0.00680519
2	0	0	1	0	0	0	230.148	-1.00001	-1.00019	-6.80381	-1.20538	-1.20538	11	-0.334826	0	0.334826	0.000000000000000E+000	0.334826	0.0000000E+000	0.000000000000000E+000	0.00680511
2	0	0	1	0	0	0	231.048	-1.00001	-1.00023	-6.81115	-1.2115	-1.2115	11	-0.336529	0	0.336529	0.000000000000000E+000	0.336529	0.0000000E+000	0.000000000000000E+000	0.00681271
2	0	0	1	0	0	0	231.948	-1.00001	-0.999904	-6.80293	-1.21762	-1.21762	11	-0.338229	0	0.338229	0.000000000000000E+000	0.338229	0.0000000E+000	0.000000000000000E+000	0.00680228
2	0	0	1	0	0	0	232.848	-1.00001	-1.0001	-6.8006	-1.22374	-1.22374	11	-0.339928	0	0.339928	0.000000000000000E+000	0.339928	0.0000000E+000	0.000000000000000E+000	0.00680124
2	0	0	1	0	0	0	233.748	-1.00001	-1.00059	-6.79675	-1.22986	-1.22986	11	-0.341626	0	0.341626	0.000000000000000E+000	0.341626	0.0000000E+000	0.000000000000000E+000	0.00680078
2	0	0	1	0	0	0	234.648	-1.00001	-1.00069	-6.79257	-1.23597	-1.23597	11	-0.343325	0	0.343325	0.000000000000000E+000	0.343325	0.0000000E+000	0.000000000000000E+000	0.00679723
2	0	0	1	0	0	0	235.548	-1.00001	-1.00094	-6.78816	-1.24208	-1.24208	11	-0.345022	0	0.345022	0.000000000000000E+000	0.345022	0.0000000E+000	0.000000000000000E+000	0.0067945
2	0	0	1	0	0	0	236.448	-1.00001	-1.00046	-6.79	-1.24819	-1.24819	11	-0.346719	0	0.346719	0.000000000000000E+000	0.346719	0.0000000E+000	0.000000000000000E+000	0.00679311
2	0	0	1	0	0	0	237.348	-1.00001	-1.00092	-6.78563	-1.25429	-1.25429	11	-0.348414	0	0.348414	0.000000000000000E+000	0.348414	0.0000000E+000	0.000000000000000E+000	0.00679185
2	0	0	1	0	0	0	238.248	-1.00001	-1.00017	-6.78275	-1.26039	-1.26039	11	-0.350109	0	0.350109	0.000000000000000E+000	0.350109	0.0000000E+000	0.000000000000000E+000	0.00678391
2	0	0	1	0	0	0	239.148	-1.00001	-1.00023	-6.78631	-1.2665	-1.2665	11	-0.351804	0	0.351804	0.000000000000000E+000	0.351804	0.0000000E+000	0.000000000000000E+000	0.00678786
2	0	0	1	0	0	0	240.048	-1.00001	-1.00034	-6.78808	-1.2726	-1.2726	11	-0.353499	0	0.353499	0.000000000000000E+000	0.353499	0.0000000E+000	0.000000000000000E+000	0.00679041
2	0	0	1	0	0	0	240.948	-1.00001	-1.00031	-6.78495	-1.2787	-1.2787	11	-0.355194	0	0.355194	0.000000000000000E+000	0.355194	0.0000000E+000	0.000000000000000E+000	0.00678702
2	0	0	1	0	0	0	241.848	-1.00001	-1.00044	-6.79113	-1.28481	-1.28481	11	-0.356891	0	0.356891	0.000000000000000E+000	0.356891	0.0000000E+000	0.000000000000000E+000	0.00679411
2	0	0	1	0	0	0	242.748	-1.00001	-1.00078	-6.79511	-1.29091	-1.29091	11	-0.358587	0	0.358587	0.000000000000000E+000	0.358587	0.0000000E+000	0.000000000000000E+000	0.00680043
2	0	0	1	0	0	0	243.648	-1.00001	-1.00002	-6.78405	-1.29702	-1.29702	11	-0.360283	0	0.360283	0.000000000000000E+000	0.360283	0.0000000E+000	0.000000000000000E+000	0.00678418
2	0	0	1	0	0	0	244.548	-1.00001	-1.00057	-6.79446	-1.30313	-1.30313	11	-0.36198	0	0.36198	0.000000000000000E+000	0.36198	0.0000000E+000	0.000000000000000E+000	0.00679835
2	0	0	1	0	0	0	245.448	-1.00001	-1.00036	-6.78882	-1.30923	-1.30923	11	-0.363676	0	0.363676	0.000000000000000E+000	0.363676	0.0000000E+000	0.000000000000000E+000	0.00679128
2	0	0	1	0	0	0	246.348	-1.00001	-1.00019	-6.7843	-1.31534	-1.31534	11	-0.365371	0	0.365371	0.000000000000000E+000	0.365371	0.0000000E+000	0.000000000000000E+000	0.00678559
2	0	0	1	0	0	0	247.248	-1.00001	-1.0005	-6.78927	-1.32144	-1.32144	11	-0.367067	0	0.367067	0.000000000000000E+000	0.367067	0.0000000E+000	0.000000000000000E+000	0.00679264
2	0	0	1	0	0	0	248.148	-1.00001	-1.00034	-6.78389	-1.32755	-1.32755	11	-0.368763	0	0.368763	0.000000000000000E+000	0.368763	0.0000000E+000	0.000000000000000E+000	0.00678622
2	0	0	1	0	0	0	249.048	-1.00001	-1.0005	-6.7776	-1.33365	-1.33365	11	-0.37046	0	0.37046	0.000000000000000E+000	0.37046	0.0000000E+000	0.000000000000000E+000	0.00678096
2	0	0	1	0	0	0	249.948	-1.00001	-1.00017	-6.77798	-1.33976	-1.33976	11	-0.372155	0	0.372155	0.000000000000000E+000	0.372155	0.0000000E+000	0.000000000000000E+000	0.00677915
2	0	0	1	0	0	0	250.848	-1.00001	-1.00103	-6.77552	-1.34586	-1.34586	11	-0.373849	0	0.373849	0.000000000000000E+000	0.373849	0.0000000E+000	0.000000000000000E+000	0.0067825
2	0	0	1	0	0	0	251.748	-1.00001	-1.00048	-6.76546	-1.35195	-1.35195	11	-0.375542	0	0.375542	0.000000000000000E+000	0.375542	0.0000000E+000	0.000000000000000E+000	0.00676869
2	0	0	1	0	0	0	252.648	-1.00001	-1.00046	-6.76585	-1.35804	-1.35804	11	-0.377235	0	0.377235	0.000000000000000E+000	0.377235	0.0000000E+000	0.000000000000000E+000	0.00676895
2	0	0	1	0	0	0	253.094	-1.00001	-1.00084	-6.75887	-1.36106	-1.36106	11	-0.378072	0	0.378072	0.000000000000000E+000	0.378072	0.0000000E+000	0.000000000000000E+000	0.00676454