File: ZnPVAECH_07 RDE 3 ECH 1600 rpm K-L.mpt
EC-Lab ASCII FILE
Nb header lines : 69

Chronoamperometry / Chronocoulometry

Run on channel : 5 (SN 6729)
User :
CE vs. WE compliance from -10 V to 10 V
Electrode connection : standard
Potential control : Ewe
Ewe ctrl range : min = -2.50 V, max = 2.50 V
Safety Limits :
	Do not start on E overload
Acquisition started on : 04/04/2022 13:04:27.143
Technique started on : 04/04/2022 13:12:52.126
Loaded Setting File :  NONE
Saved on :
	File : 04-22-22-Zn PVA ECH 1600 rpm K-L RDE1 gc_04_CA_C05.mpr
	Directory : \\research-scb.egr.msu.edu\research-scb\Mindy\Koutecky Levich\Zn PVA\ECH\04-04-22\
	Host : 35.9.136.210
Device : VSP (SN 0012)
Address : 35.9.137.65
EC-Lab for windows v11.43 (software)
Internet server v11.40 (firmware)
Command interpretor v11.40 (firmware)
Electrode material : Au/Pd
Initial state :
Electrolyte : NaCl (0.2M)
Comments : Fe(CN)63-/Fe(CN)64- 5.10-3 M
Reference electrode : SCE Saturated Calomel Electrode (0.241 V)
Electrode surface area : 0.196 cm²
Characteristic mass : 0.001 g
Equivalent Weight : 0.000 g/eq.
Density : 0.000 g/cm3
Volume (V) : 0.001 cm³
Cycle Definition : Charge/Discharge alternance
Ei (V)              -0.700
vs.                 Ref
ti (h:m:s)          0:30:0.0000
Imax                pass
unit Imax           mA
Imin                pass
unit Imin           mA
dQM                 0.000
unit dQM            mA.h
record              <I>
dI                  5.000
unit dI             µA
dQ                  0.000
unit dQ             mA.h
dt (s)              0.1000
dta (s)             0.1000
E range min (V)     -2.500
E range max (V)     2.500
I Range             Auto
I Range min         Unset
I Range max         Unset
I Range init        Unset
Bandwidth           5
goto Ns'            0
nc cycles           0

Modify on : 04/04/2022 13:13
Ei (V)              -0.800

Modify on : 04/04/2022 13:13
Ei (V)              -0.750

mode	ox/red	error	control changes	Ns changes	counter inc.	Ns	time/s	control/V	Ewe/V	<I>/mA	dQ/C	(Q-Qo)/C	I Range	Q charge/discharge/mA.h	half cycle	Q discharge/mA.h	Q charge/mA.h	Capacity/mA.h	Efficiency/%	cycle number	P/W
2	0	0	0	0	0	0	504.983	-0.699977	-0.700496	-0.80787	-3.91783e-05	-3.91783e-05	12	-1.08829e-05	0	1.08829e-05	0.000000000000000E+000	1.08829e-05	0.0000000E+000	0.000000000000000E+000	0.00056591
2	0	0	0	0	0	0	505.883	-0.699977	-0.700191	-0.810263	-0.00076873	-0.00076873	12	-0.000213536	0	0.000213536	0.000000000000000E+000	0.000213536	0.0000000E+000	0.000000000000000E+000	0.000567338
2	0	0	0	0	0	0	506.783	-0.699977	-0.700553	-0.811161	-0.0014986	-0.0014986	12	-0.000416279	0	0.000416279	0.000000000000000E+000	0.000416279	0.0000000E+000	0.000000000000000E+000	0.000568261
2	0	0	0	0	0	0	507.683	-0.699977	-0.700324	-0.810544	-0.00222828	-0.00222828	12	-0.000618966	0	0.000618966	0.000000000000000E+000	0.000618966	0.0000000E+000	0.000000000000000E+000	0.000567643
2	0	0	0	0	0	0	508.583	-0.699977	-0.70042	-0.810078	-0.00295772	-0.00295772	12	-0.000821589	0	0.000821589	0.000000000000000E+000	0.000821589	0.0000000E+000	0.000000000000000E+000	0.000567395
2	0	0	0	0	0	0	509.483	-0.699977	-0.700362	-0.80947	-0.00368667	-0.00368667	12	-0.00102407	0	0.00102407	0.000000000000000E+000	0.00102407	0.0000000E+000	0.000000000000000E+000	0.000566922
2	0	0	0	0	0	0	510.383	-0.699977	-0.700401	-0.808506	-0.004415	-0.004415	12	-0.00122639	0	0.00122639	0.000000000000000E+000	0.00122639	0.0000000E+000	0.000000000000000E+000	0.000566278
2	0	0	0	0	0	0	511.283	-0.699977	-0.700324	-0.807937	-0.00514271	-0.00514271	12	-0.00142853	0	0.00142853	0.000000000000000E+000	0.00142853	0.0000000E+000	0.000000000000000E+000	0.000565818
2	0	0	0	0	0	0	512.183	-0.699977	-0.700439	-0.808097	-0.00587001	-0.00587001	12	-0.00163056	0	0.00163056	0.000000000000000E+000	0.00163056	0.0000000E+000	0.000000000000000E+000	0.000566022
2	0	0	0	0	0	0	513.083	-0.699977	-0.700458	-0.80749	-0.00659693	-0.00659693	12	-0.00183248	0	0.00183248	0.000000000000000E+000	0.00183248	0.0000000E+000	0.000000000000000E+000	0.000565613
2	0	0	0	0	0	0	513.983	-0.699977	-0.700401	-0.806145	-0.0073232	-0.0073232	12	-0.00203422	0	0.00203422	0.000000000000000E+000	0.00203422	0.0000000E+000	0.000000000000000E+000	0.000564625
2	0	0	0	0	0	0	514.883	-0.699977	-0.700381	-0.805787	-0.00804871	-0.00804871	12	-0.00223575	0	0.00223575	0.000000000000000E+000	0.00223575	0.0000000E+000	0.000000000000000E+000	0.000564358
2	0	0	0	0	0	0	515.783	-0.699977	-0.700515	-0.805596	-0.00877386	-0.00877386	12	-0.00243718	0	0.00243718	0.000000000000000E+000	0.00243718	0.0000000E+000	0.000000000000000E+000	0.000564332
2	0	0	0	0	0	0	516.683	-0.699977	-0.700439	-0.804697	-0.00949871	-0.00949871	12	-0.00263853	0	0.00263853	0.000000000000000E+000	0.00263853	0.0000000E+000	0.000000000000000E+000	0.000563641
2	0	0	0	0	0	0	517.583	-0.699977	-0.700381	-0.804326	-0.0102231	-0.0102231	12	-0.00283975	0	0.00283975	0.000000000000000E+000	0.00283975	0.0000000E+000	0.000000000000000E+000	0.000563335
2	0	0	0	0	0	0	518.483	-0.699977	-0.700649	-0.804634	-0.0109474	-0.0109474	12	-0.00304093	0	0.00304093	0.000000000000000E+000	0.00304093	0.0000000E+000	0.000000000000000E+000	0.000563766
2	0	0	0	0	0	0	519.383	-0.699977	-0.700248	-0.803825	-0.0116712	-0.0116712	12	-0.00324201	0	0.00324201	0.000000000000000E+000	0.00324201	0.0000000E+000	0.000000000000000E+000	0.000562877
2	0	0	1	0	0	0	520.283	-0.800021	-0.800458	-2.41303	-0.0137643	-0.0137643	11	-0.00382342	0	0.00382342	0.000000000000000E+000	0.00382342	0.0000000E+000	0.000000000000000E+000	0.00193153
2	0	0	1	0	0	0	521.183	-0.800021	-0.80021	-2.41136	-0.0159346	-0.0159346	11	-0.00442627	0	0.00442627	0.000000000000000E+000	0.00442627	0.0000000E+000	0.000000000000000E+000	0.0019296
2	0	0	1	0	0	0	522.083	-0.800021	-0.800477	-2.41127	-0.0181038	-0.0181038	11	-0.00502884	0	0.00502884	0.000000000000000E+000	0.00502884	0.0000000E+000	0.000000000000000E+000	0.00193016
2	0	0	1	0	0	0	522.983	-0.800021	-0.800439	-2.40964	-0.0202728	-0.0202728	11	-0.00563134	0	0.00563134	0.000000000000000E+000	0.00563134	0.0000000E+000	0.000000000000000E+000	0.00192877
2	0	0	1	0	0	0	523.883	-0.800021	-0.800496	-2.40765	-0.0224405	-0.0224405	11	-0.00623347	0	0.00623347	0.000000000000000E+000	0.00623347	0.0000000E+000	0.000000000000000E+000	0.00192732
2	0	0	1	0	0	0	524.783	-0.800021	-0.800324	-2.40808	-0.0246072	-0.0246072	11	-0.00683532	0	0.00683532	0.000000000000000E+000	0.00683532	0.0000000E+000	0.000000000000000E+000	0.00192725
2	0	0	1	0	0	0	525.683	-0.800021	-0.800534	-2.40807	-0.0267746	-0.0267746	11	-0.00743739	0	0.00743739	0.000000000000000E+000	0.00743739	0.0000000E+000	0.000000000000000E+000	0.00192774
2	0	0	1	0	0	0	526.583	-0.800021	-0.800572	-2.40831	-0.0289413	-0.0289413	11	-0.00803924	0	0.00803924	0.000000000000000E+000	0.00803924	0.0000000E+000	0.000000000000000E+000	0.00192803
2	0	0	1	0	0	0	527.483	-0.800021	-0.800382	-2.40318	-0.0311041	-0.0311041	11	-0.00864004	0	0.00864004	0.000000000000000E+000	0.00864004	0.0000000E+000	0.000000000000000E+000	0.00192346
2	0	0	1	0	0	0	528.383	-0.800021	-0.800401	-2.40457	-0.0332658	-0.0332658	11	-0.0092405	0	0.0092405	0.000000000000000E+000	0.0092405	0.0000000E+000	0.000000000000000E+000	0.00192462
2	0	0	1	0	0	0	529.283	-0.800021	-0.800458	-2.40276	-0.0354271	-0.0354271	11	-0.00984087	0	0.00984087	0.000000000000000E+000	0.00984087	0.0000000E+000	0.000000000000000E+000	0.00192331
2	0	0	1	0	0	0	530.183	-0.800021	-0.800534	-2.39971	-0.0375867	-0.0375867	11	-0.0104407	0	0.0104407	0.000000000000000E+000	0.0104407	0.0000000E+000	0.000000000000000E+000	0.00192105
2	0	0	1	0	0	0	531.083	-0.800021	-0.800553	-2.39838	-0.039744	-0.039744	11	-0.01104	0	0.01104	0.000000000000000E+000	0.01104	0.0000000E+000	0.000000000000000E+000	0.00192003
2	0	0	1	0	0	0	531.983	-0.800021	-0.80042	-2.39532	-0.0418996	-0.0418996	11	-0.0116388	0	0.0116388	0.000000000000000E+000	0.0116388	0.0000000E+000	0.000000000000000E+000	0.00191727
2	0	0	1	0	0	0	532.883	-0.800021	-0.80063	-2.39315	-0.044052	-0.044052	11	-0.0122367	0	0.0122367	0.000000000000000E+000	0.0122367	0.0000000E+000	0.000000000000000E+000	0.00191603
2	0	0	1	0	0	0	533.783	-0.800021	-0.800343	-2.39327	-0.0462043	-0.0462043	11	-0.0128345	0	0.0128345	0.000000000000000E+000	0.0128345	0.0000000E+000	0.000000000000000E+000	0.00191544
2	0	0	1	0	0	0	534.683	-0.800021	-0.800611	-2.39308	-0.0483557	-0.0483557	11	-0.0134321	0	0.0134321	0.000000000000000E+000	0.0134321	0.0000000E+000	0.000000000000000E+000	0.00191592
2	0	0	1	0	0	0	535.583	-0.800021	-0.800496	-2.39136	-0.0505075	-0.0505075	11	-0.0140299	0	0.0140299	0.000000000000000E+000	0.0140299	0.0000000E+000	0.000000000000000E+000	0.00191428
2	0	0	1	0	0	0	536.483	-0.800021	-0.800439	-2.39412	-0.0526592	-0.0526592	11	-0.0146276	0	0.0146276	0.000000000000000E+000	0.0146276	0.0000000E+000	0.000000000000000E+000	0.00191635
2	0	0	1	0	0	0	537.383	-0.800021	-0.800382	-2.39324	-0.0548111	-0.0548111	11	-0.0152253	0	0.0152253	0.000000000000000E+000	0.0152253	0.0000000E+000	0.000000000000000E+000	0.0019155
2	0	0	1	0	0	0	538.283	-0.800021	-0.800706	-2.39029	-0.0569629	-0.0569629	11	-0.015823	0	0.015823	0.000000000000000E+000	0.015823	0.0000000E+000	0.000000000000000E+000	0.00191392
2	0	0	1	0	0	0	539.183	-0.800021	-0.800534	-2.3901	-0.0591143	-0.0591143	11	-0.0164206	0	0.0164206	0.000000000000000E+000	0.0164206	0.0000000E+000	0.000000000000000E+000	0.00191335
2	0	0	1	0	0	0	540.083	-0.800021	-0.800305	-2.38888	-0.0612649	-0.0612649	11	-0.017018	0	0.017018	0.000000000000000E+000	0.017018	0.0000000E+000	0.000000000000000E+000	0.00191184
2	0	0	1	0	0	0	540.983	-0.800021	-0.800401	-2.38712	-0.0634152	-0.0634152	11	-0.0176153	0	0.0176153	0.000000000000000E+000	0.0176153	0.0000000E+000	0.000000000000000E+000	0.00191065
2	0	0	1	0	0	0	541.883	-0.800021	-0.800553	-2.38961	-0.0655655	-0.0655655	11	-0.0182126	0	0.0182126	0.000000000000000E+000	0.0182126	0.0000000E+000	0.000000000000000E+000	0.00191301
2	0	0	1	0	0	0	542.783	-0.800021	-0.800439	-2.38897	-0.0677167	-0.0677167	11	-0.0188102	0	0.0188102	0.000000000000000E+000	0.0188102	0.0000000E+000	0.000000000000000E+000	0.00191223
2	0	0	1	0	0	0	543.683	-0.800021	-0.800592	-2.38825	-0.069867	-0.069867	11	-0.0194075	0	0.0194075	0.000000000000000E+000	0.0194075	0.0000000E+000	0.000000000000000E+000	0.00191201
2	0	0	0	0	0	0	544.583	-0.749999	-0.750572	-1.50305	-0.0715355	-0.0715355	11	-0.019871	0	0.019871	0.000000000000000E+000	0.019871	0.0000000E+000	0.000000000000000E+000	0.00112815
2	0	0	0	0	0	0	545.483	-0.749999	-0.750305	-1.50295	-0.0728888	-0.0728888	11	-0.0202469	0	0.0202469	0.000000000000000E+000	0.0202469	0.0000000E+000	0.000000000000000E+000	0.00112767
2	0	0	0	0	0	0	546.383	-0.749999	-0.750305	-1.50219	-0.0742415	-0.0742415	11	-0.0206226	0	0.0206226	0.000000000000000E+000	0.0206226	0.0000000E+000	0.000000000000000E+000	0.0011271
2	0	0	0	0	0	0	547.283	-0.749999	-0.750362	-1.50087	-0.0755938	-0.0755938	11	-0.0209983	0	0.0209983	0.000000000000000E+000	0.0209983	0.0000000E+000	0.000000000000000E+000	0.0011262
2	0	0	0	0	0	0	548.183	-0.749999	-0.750286	-1.49894	-0.0769445	-0.0769445	11	-0.0213735	0	0.0213735	0.000000000000000E+000	0.0213735	0.0000000E+000	0.000000000000000E+000	0.00112464
2	0	0	0	0	0	0	549.083	-0.749999	-0.750267	-1.50028	-0.0782942	-0.0782942	11	-0.0217484	0	0.0217484	0.000000000000000E+000	0.0217484	0.0000000E+000	0.000000000000000E+000	0.00112561
2	0	0	0	0	0	0	549.983	-0.749999	-0.750496	-1.49997	-0.0796448	-0.0796448	11	-0.0221235	0	0.0221235	0.000000000000000E+000	0.0221235	0.0000000E+000	0.000000000000000E+000	0.00112572
2	0	0	0	0	0	0	550.883	-0.749999	-0.750458	-1.49879	-0.0809941	-0.0809941	11	-0.0224984	0	0.0224984	0.000000000000000E+000	0.0224984	0.0000000E+000	0.000000000000000E+000	0.00112478
2	0	0	0	0	0	0	551.783	-0.749999	-0.750458	-1.49756	-0.0823425	-0.0823425	11	-0.0228729	0	0.0228729	0.000000000000000E+000	0.0228729	0.0000000E+000	0.000000000000000E+000	0.00112386
2	0	0	0	0	0	0	552.683	-0.749999	-0.750381	-1.4979	-0.0836907	-0.0836907	11	-0.0232474	0	0.0232474	0.000000000000000E+000	0.0232474	0.0000000E+000	0.000000000000000E+000	0.00112399
2	0	0	0	0	0	0	553.583	-0.749999	-0.75042	-1.49699	-0.0850385	-0.0850385	11	-0.0236218	0	0.0236218	0.000000000000000E+000	0.0236218	0.0000000E+000	0.000000000000000E+000	0.00112337
2	0	0	0	0	0	0	554.483	-0.749999	-0.750458	-1.4969	-0.0863863	-0.0863863	11	-0.0239962	0	0.0239962	0.000000000000000E+000	0.0239962	0.0000000E+000	0.000000000000000E+000	0.00112336
2	0	0	0	0	0	0	555.383	-0.749999	-0.750515	-1.49723	-0.087734	-0.087734	11	-0.0243706	0	0.0243706	0.000000000000000E+000	0.0243706	0.0000000E+000	0.000000000000000E+000	0.00112369
2	0	0	0	0	0	0	556.283	-0.749999	-0.750343	-1.49656	-0.0890805	-0.0890805	11	-0.0247446	0	0.0247446	0.000000000000000E+000	0.0247446	0.0000000E+000	0.000000000000000E+000	0.00112293
2	0	0	0	0	0	0	557.183	-0.749999	-0.750515	-1.49563	-0.0904267	-0.0904267	11	-0.0251185	0	0.0251185	0.000000000000000E+000	0.0251185	0.0000000E+000	0.000000000000000E+000	0.0011225
2	0	0	0	0	0	0	558.083	-0.749999	-0.750458	-1.44081	-0.0917516	-0.0917516	11	-0.0254866	0	0.0254866	0.000000000000000E+000	0.0254866	0.0000000E+000	0.000000000000000E+000	0.00108126
2	0	0	0	0	0	0	558.983	-0.749999	-0.750477	-1.45991	-0.0930606	-0.0930606	11	-0.0258502	0	0.0258502	0.000000000000000E+000	0.0258502	0.0000000E+000	0.000000000000000E+000	0.00109563
2	0	0	0	0	0	0	559.883	-0.749999	-0.750668	-1.46157	-0.0943751	-0.0943751	11	-0.0262153	0	0.0262153	0.000000000000000E+000	0.0262153	0.0000000E+000	0.000000000000000E+000	0.00109715
2	0	0	0	0	0	0	560.783	-0.749999	-0.75042	-1.4606	-0.0956898	-0.0956898	11	-0.0265805	0	0.0265805	0.000000000000000E+000	0.0265805	0.0000000E+000	0.000000000000000E+000	0.00109606
2	0	0	0	0	0	0	561.683	-0.749999	-0.750305	-1.46246	-0.0970054	-0.0970054	11	-0.026946	0	0.026946	0.000000000000000E+000	0.026946	0.0000000E+000	0.000000000000000E+000	0.00109729
2	0	0	0	0	0	0	562.583	-0.749999	-0.750401	-1.46078	-0.0983206	-0.0983206	11	-0.0273113	0	0.0273113	0.000000000000000E+000	0.0273113	0.0000000E+000	0.000000000000000E+000	0.00109617
2	0	0	0	0	0	0	563.483	-0.749999	-0.750458	-1.46116	-0.0996357	-0.0996357	11	-0.0276766	0	0.0276766	0.000000000000000E+000	0.0276766	0.0000000E+000	0.000000000000000E+000	0.00109654
2	0	0	0	0	0	0	564.383	-0.749999	-0.750477	-1.46109	-0.100951	-0.100951	11	-0.0280418	0	0.0280418	0.000000000000000E+000	0.0280418	0.0000000E+000	0.000000000000000E+000	0.00109651
2	0	0	0	0	0	0	565.283	-0.749999	-0.750572	-1.45775	-0.102264	-0.102264	11	-0.0284067	0	0.0284067	0.000000000000000E+000	0.0284067	0.0000000E+000	0.000000000000000E+000	0.00109415
2	0	0	0	0	0	0	566.183	-0.749999	-0.750515	-1.45723	-0.103576	-0.103576	11	-0.0287711	0	0.0287711	0.000000000000000E+000	0.0287711	0.0000000E+000	0.000000000000000E+000	0.00109367
2	0	0	0	0	0	0	567.083	-0.749999	-0.750515	-1.45559	-0.104886	-0.104886	11	-0.0291351	0	0.0291351	0.000000000000000E+000	0.0291351	0.0000000E+000	0.000000000000000E+000	0.00109244
2	0	0	0	0	0	0	567.983	-0.749999	-0.750477	-1.45593	-0.106196	-0.106196	11	-0.029499	0	0.029499	0.000000000000000E+000	0.029499	0.0000000E+000	0.000000000000000E+000	0.00109264
2	0	0	0	0	0	0	568.883	-0.749999	-0.750401	-1.45401	-0.107506	-0.107506	11	-0.0298627	0	0.0298627	0.000000000000000E+000	0.0298627	0.0000000E+000	0.000000000000000E+000	0.00109109
2	0	0	0	0	0	0	569.783	-0.749999	-0.750324	-1.45484	-0.108815	-0.108815	11	-0.0302263	0	0.0302263	0.000000000000000E+000	0.0302263	0.0000000E+000	0.000000000000000E+000	0.0010916
2	0	0	0	0	0	0	570.683	-0.749999	-0.750591	-1.45314	-0.110123	-0.110123	11	-0.0305898	0	0.0305898	0.000000000000000E+000	0.0305898	0.0000000E+000	0.000000000000000E+000	0.00109072
2	0	0	0	0	0	0	571.583	-0.749999	-0.750458	-1.45133	-0.111431	-0.111431	11	-0.0309532	0	0.0309532	0.000000000000000E+000	0.0309532	0.0000000E+000	0.000000000000000E+000	0.00108916
2	0	0	0	0	0	0	572.483	-0.749999	-0.750477	-1.42576	-0.112725	-0.112725	11	-0.0313125	0	0.0313125	0.000000000000000E+000	0.0313125	0.0000000E+000	0.000000000000000E+000	0.00107
2	0	0	0	0	0	0	573.383	-0.749999	-0.750439	-1.42518	-0.114008	-0.114008	11	-0.0316688	0	0.0316688	0.000000000000000E+000	0.0316688	0.0000000E+000	0.000000000000000E+000	0.00106951
2	0	0	0	0	0	0	574.283	-0.749999	-0.750458	-1.42479	-0.11529	-0.11529	11	-0.032025	0	0.032025	0.000000000000000E+000	0.032025	0.0000000E+000	0.000000000000000E+000	0.00106925
2	0	0	0	0	0	0	575.183	-0.749999	-0.750381	-1.425	-0.116572	-0.116572	11	-0.0323812	0	0.0323812	0.000000000000000E+000	0.0323812	0.0000000E+000	0.000000000000000E+000	0.00106929
2	0	0	0	0	0	0	576.083	-0.749999	-0.750362	-1.42485	-0.117855	-0.117855	11	-0.0327374	0	0.0327374	0.000000000000000E+000	0.0327374	0.0000000E+000	0.000000000000000E+000	0.00106915
2	0	0	0	0	0	0	576.983	-0.749999	-0.750496	-1.4249	-0.119137	-0.119137	11	-0.0330937	0	0.0330937	0.000000000000000E+000	0.0330937	0.0000000E+000	0.000000000000000E+000	0.00106938
2	0	0	0	0	0	0	577.883	-0.749999	-0.750401	-1.42455	-0.120419	-0.120419	11	-0.0334497	0	0.0334497	0.000000000000000E+000	0.0334497	0.0000000E+000	0.000000000000000E+000	0.00106898
2	0	0	0	0	0	0	578.783	-0.749999	-0.750286	-1.42507	-0.121702	-0.121702	11	-0.033806	0	0.033806	0.000000000000000E+000	0.033806	0.0000000E+000	0.000000000000000E+000	0.00106921
2	0	0	0	0	0	0	579.683	-0.749999	-0.750343	-1.42515	-0.122984	-0.122984	11	-0.0341623	0	0.0341623	0.000000000000000E+000	0.0341623	0.0000000E+000	0.000000000000000E+000	0.00106935
2	0	0	0	0	0	0	580.583	-0.749999	-0.750305	-1.42507	-0.124266	-0.124266	11	-0.0345184	0	0.0345184	0.000000000000000E+000	0.0345184	0.0000000E+000	0.000000000000000E+000	0.00106924
2	0	0	0	0	0	0	581.483	-0.749999	-0.750477	-1.4237	-0.125548	-0.125548	11	-0.0348744	0	0.0348744	0.000000000000000E+000	0.0348744	0.0000000E+000	0.000000000000000E+000	0.00106845
2	0	0	0	0	0	0	582.383	-0.749999	-0.750477	-1.42324	-0.126829	-0.126829	11	-0.0352303	0	0.0352303	0.000000000000000E+000	0.0352303	0.0000000E+000	0.000000000000000E+000	0.00106811
2	0	0	0	0	0	0	583.283	-0.749999	-0.750496	-1.42326	-0.12811	-0.12811	11	-0.0355862	0	0.0355862	0.000000000000000E+000	0.0355862	0.0000000E+000	0.000000000000000E+000	0.00106815
2	0	0	0	0	0	0	584.183	-0.749999	-0.75042	-1.41034	-0.129388	-0.129388	11	-0.0359411	0	0.0359411	0.000000000000000E+000	0.0359411	0.0000000E+000	0.000000000000000E+000	0.00105834
2	0	0	0	0	0	0	585.083	-0.749999	-0.750477	-1.36654	-0.130633	-0.130633	11	-0.036287	0	0.036287	0.000000000000000E+000	0.036287	0.0000000E+000	0.000000000000000E+000	0.00102556
2	0	0	0	0	0	0	585.983	-0.749999	-0.750496	-1.36248	-0.131863	-0.131863	11	-0.0366286	0	0.0366286	0.000000000000000E+000	0.0366286	0.0000000E+000	0.000000000000000E+000	0.00102254
2	0	0	0	0	0	0	586.883	-0.749999	-0.750401	-1.3592	-0.13309	-0.13309	11	-0.0369696	0	0.0369696	0.000000000000000E+000	0.0369696	0.0000000E+000	0.000000000000000E+000	0.00101995
2	0	0	0	0	0	0	587.783	-0.749999	-0.750515	-1.35942	-0.134317	-0.134317	11	-0.0373103	0	0.0373103	0.000000000000000E+000	0.0373103	0.0000000E+000	0.000000000000000E+000	0.00102027
2	0	0	0	0	0	0	588.683	-0.749999	-0.750343	-1.36051	-0.135544	-0.135544	11	-0.037651	0	0.037651	0.000000000000000E+000	0.037651	0.0000000E+000	0.000000000000000E+000	0.00102085
2	0	0	0	0	0	0	589.583	-0.749999	-0.750572	-1.36234	-0.136771	-0.136771	11	-0.0379919	0	0.0379919	0.000000000000000E+000	0.0379919	0.0000000E+000	0.000000000000000E+000	0.00102253
2	0	0	0	0	0	0	590.483	-0.749999	-0.750343	-1.36374	-0.137997	-0.137997	11	-0.0383326	0	0.0383326	0.000000000000000E+000	0.0383326	0.0000000E+000	0.000000000000000E+000	0.00102327
2	0	0	0	0	0	0	591.383	-0.749999	-0.750343	-1.36258	-0.139224	-0.139224	11	-0.0386733	0	0.0386733	0.000000000000000E+000	0.0386733	0.0000000E+000	0.000000000000000E+000	0.0010224
2	0	0	0	0	0	0	592.283	-0.749999	-0.750324	-1.36415	-0.14045	-0.14045	11	-0.0390138	0	0.0390138	0.000000000000000E+000	0.0390138	0.0000000E+000	0.000000000000000E+000	0.00102356
2	0	0	0	0	0	0	593.183	-0.749999	-0.750534	-1.36469	-0.141676	-0.141676	11	-0.0393543	0	0.0393543	0.000000000000000E+000	0.0393543	0.0000000E+000	0.000000000000000E+000	0.00102425
2	0	0	0	0	0	0	594.083	-0.749999	-0.750401	-1.36558	-0.142901	-0.142901	11	-0.0396947	0	0.0396947	0.000000000000000E+000	0.0396947	0.0000000E+000	0.000000000000000E+000	0.00102473
2	0	0	0	0	0	0	594.983	-0.749999	-0.750324	-1.36404	-0.144125	-0.144125	11	-0.0400348	0	0.0400348	0.000000000000000E+000	0.0400348	0.0000000E+000	0.000000000000000E+000	0.00102347
2	0	0	0	0	0	0	595.883	-0.749999	-0.750534	-1.36352	-0.145349	-0.145349	11	-0.0403748	0	0.0403748	0.000000000000000E+000	0.0403748	0.0000000E+000	0.000000000000000E+000	0.00102337
2	0	0	0	0	0	0	596.783	-0.749999	-0.750515	-1.36481	-0.146574	-0.146574	11	-0.040715	0	0.040715	0.000000000000000E+000	0.040715	0.0000000E+000	0.000000000000000E+000	0.00102431
2	0	0	0	0	0	0	597.683	-0.749999	-0.750362	-1.36305	-0.147799	-0.147799	11	-0.0410553	0	0.0410553	0.000000000000000E+000	0.0410553	0.0000000E+000	0.000000000000000E+000	0.00102278
2	0	0	0	0	0	0	598.583	-0.749999	-0.75042	-1.35891	-0.149023	-0.149023	11	-0.0413953	0	0.0413953	0.000000000000000E+000	0.0413953	0.0000000E+000	0.000000000000000E+000	0.00101975
2	0	0	0	0	0	0	599.483	-0.749999	-0.750515	-1.35866	-0.150245	-0.150245	11	-0.0417348	0	0.0417348	0.000000000000000E+000	0.0417348	0.0000000E+000	0.000000000000000E+000	0.00101969
2	0	0	0	0	0	0	600.383	-0.749999	-0.750515	-1.35603	-0.151467	-0.151467	11	-0.0420742	0	0.0420742	0.000000000000000E+000	0.0420742	0.0000000E+000	0.000000000000000E+000	0.00101772
2	0	0	0	0	0	0	601.283	-0.749999	-0.750401	-1.35422	-0.152689	-0.152689	11	-0.0424135	0	0.0424135	0.000000000000000E+000	0.0424135	0.0000000E+000	0.000000000000000E+000	0.00101621
2	0	0	0	0	0	0	602.183	-0.749999	-0.750362	-1.35277	-0.153909	-0.153909	11	-0.0427526	0	0.0427526	0.000000000000000E+000	0.0427526	0.0000000E+000	0.000000000000000E+000	0.00101507
2	0	0	0	0	0	0	603.083	-0.749999	-0.750401	-1.35402	-0.155132	-0.155132	11	-0.0430921	0	0.0430921	0.000000000000000E+000	0.0430921	0.0000000E+000	0.000000000000000E+000	0.00101606
2	0	0	0	0	0	0	603.983	-0.749999	-0.750477	-1.35521	-0.156355	-0.156355	11	-0.0434318	0	0.0434318	0.000000000000000E+000	0.0434318	0.0000000E+000	0.000000000000000E+000	0.00101706
2	0	0	0	0	0	0	604.883	-0.749999	-0.750572	-1.35497	-0.157578	-0.157578	11	-0.0437716	0	0.0437716	0.000000000000000E+000	0.0437716	0.0000000E+000	0.000000000000000E+000	0.00101701
2	0	0	0	0	0	0	605.783	-0.749999	-0.750649	-1.35659	-0.158801	-0.158801	11	-0.0441114	0	0.0441114	0.000000000000000E+000	0.0441114	0.0000000E+000	0.000000000000000E+000	0.00101832
2	0	0	0	0	0	0	606.683	-0.749999	-0.750611	-1.35811	-0.160025	-0.160025	11	-0.0444513	0	0.0444513	0.000000000000000E+000	0.0444513	0.0000000E+000	0.000000000000000E+000	0.00101941
2	0	0	0	0	0	0	607.583	-0.749999	-0.75042	-1.35355	-0.161246	-0.161246	11	-0.0447906	0	0.0447906	0.000000000000000E+000	0.0447906	0.0000000E+000	0.000000000000000E+000	0.00101573
2	0	0	0	0	0	0	608.483	-0.749999	-0.750515	-1.32189	-0.162443	-0.162443	11	-0.045123	0	0.045123	0.000000000000000E+000	0.045123	0.0000000E+000	0.000000000000000E+000	0.000992096
2	0	0	0	0	0	0	609.383	-0.749999	-0.750401	-1.31014	-0.163626	-0.163626	11	-0.0454516	0	0.0454516	0.000000000000000E+000	0.0454516	0.0000000E+000	0.000000000000000E+000	0.000983129
2	0	0	0	0	0	0	610.283	-0.749999	-0.75042	-1.30843	-0.164807	-0.164807	11	-0.0457797	0	0.0457797	0.000000000000000E+000	0.0457797	0.0000000E+000	0.000000000000000E+000	0.000981871
2	0	0	0	0	0	0	611.183	-0.749999	-0.750477	-1.31901	-0.165988	-0.165988	11	-0.0461079	0	0.0461079	0.000000000000000E+000	0.0461079	0.0000000E+000	0.000000000000000E+000	0.000989885
2	0	0	0	0	0	0	612.083	-0.749999	-0.750401	-1.31206	-0.167169	-0.167169	11	-0.0464359	0	0.0464359	0.000000000000000E+000	0.0464359	0.0000000E+000	0.000000000000000E+000	0.00098457
2	0	0	0	0	0	0	612.983	-0.749999	-0.75042	-1.30539	-0.16835	-0.16835	11	-0.0467639	0	0.0467639	0.000000000000000E+000	0.0467639	0.0000000E+000	0.000000000000000E+000	0.00097959
2	0	0	0	0	0	0	613.883	-0.749999	-0.750591	-1.31364	-0.169531	-0.169531	11	-0.0470919	0	0.0470919	0.000000000000000E+000	0.0470919	0.0000000E+000	0.000000000000000E+000	0.000986006
2	0	0	0	0	0	0	614.783	-0.749999	-0.750515	-1.316	-0.170712	-0.170712	11	-0.0474199	0	0.0474199	0.000000000000000E+000	0.0474199	0.0000000E+000	0.000000000000000E+000	0.000987676
2	0	0	0	0	0	0	615.683	-0.749999	-0.750381	-1.30904	-0.171892	-0.171892	11	-0.0477477	0	0.0477477	0.000000000000000E+000	0.0477477	0.0000000E+000	0.000000000000000E+000	0.000982281
2	0	0	0	0	0	0	616.583	-0.749999	-0.750458	-1.30725	-0.173071	-0.173071	11	-0.0480754	0	0.0480754	0.000000000000000E+000	0.0480754	0.0000000E+000	0.000000000000000E+000	0.000981037
2	0	0	0	0	0	0	617.483	-0.749999	-0.750324	-1.31795	-0.174252	-0.174252	11	-0.0484034	0	0.0484034	0.000000000000000E+000	0.0484034	0.0000000E+000	0.000000000000000E+000	0.000988888
2	0	0	0	0	0	0	618.383	-0.749999	-0.75042	-1.31202	-0.175433	-0.175433	11	-0.0487313	0	0.0487313	0.000000000000000E+000	0.0487313	0.0000000E+000	0.000000000000000E+000	0.000984563
2	0	0	0	0	0	0	619.283	-0.749999	-0.75042	-1.30629	-0.176612	-0.176612	11	-0.049059	0	0.049059	0.000000000000000E+000	0.049059	0.0000000E+000	0.000000000000000E+000	0.000980267
2	0	0	0	0	0	0	620.183	-0.749999	-0.750515	-1.31302	-0.177793	-0.177793	11	-0.049387	0	0.049387	0.000000000000000E+000	0.049387	0.0000000E+000	0.000000000000000E+000	0.000985441
2	0	0	0	0	0	0	621.083	-0.749999	-0.75042	-1.31654	-0.178974	-0.178974	11	-0.049715	0	0.049715	0.000000000000000E+000	0.049715	0.0000000E+000	0.000000000000000E+000	0.000987958
2	0	0	0	0	0	0	621.983	-0.749999	-0.750496	-1.30894	-0.180154	-0.180154	11	-0.0500427	0	0.0500427	0.000000000000000E+000	0.0500427	0.0000000E+000	0.000000000000000E+000	0.000982355
2	0	0	0	0	0	0	622.883	-0.749999	-0.750477	-1.30273	-0.181332	-0.181332	11	-0.0503701	0	0.0503701	0.000000000000000E+000	0.0503701	0.0000000E+000	0.000000000000000E+000	0.000977672
2	0	0	0	0	0	0	623.783	-0.749999	-0.750458	-1.31639	-0.182512	-0.182512	11	-0.0506977	0	0.0506977	0.000000000000000E+000	0.0506977	0.0000000E+000	0.000000000000000E+000	0.000987892
2	0	0	0	0	0	0	624.683	-0.749999	-0.750343	-1.24947	-0.183665	-0.183665	11	-0.0510179	0	0.0510179	0.000000000000000E+000	0.0510179	0.0000000E+000	0.000000000000000E+000	0.000937535
2	0	0	0	0	0	0	625.583	-0.749999	-0.750439	-1.24197	-0.184791	-0.184791	11	-0.0513308	0	0.0513308	0.000000000000000E+000	0.0513308	0.0000000E+000	0.000000000000000E+000	0.000932023
2	0	0	0	0	0	0	626.483	-0.749999	-0.750477	-1.2461	-0.185914	-0.185914	11	-0.0516429	0	0.0516429	0.000000000000000E+000	0.0516429	0.0000000E+000	0.000000000000000E+000	0.000935169
2	0	0	0	0	0	0	627.383	-0.749999	-0.750401	-1.24985	-0.187037	-0.187037	11	-0.0519548	0	0.0519548	0.000000000000000E+000	0.0519548	0.0000000E+000	0.000000000000000E+000	0.000937891
2	0	0	0	0	0	0	628.283	-0.749999	-0.750496	-1.25448	-0.18816	-0.18816	11	-0.0522666	0	0.0522666	0.000000000000000E+000	0.0522666	0.0000000E+000	0.000000000000000E+000	0.000941485
2	0	0	0	0	0	0	629.183	-0.749999	-0.750534	-1.2543	-0.189282	-0.189282	11	-0.0525784	0	0.0525784	0.000000000000000E+000	0.0525784	0.0000000E+000	0.000000000000000E+000	0.000941397
2	0	0	0	0	0	0	630.083	-0.749999	-0.750515	-1.25338	-0.190405	-0.190405	11	-0.0528902	0	0.0528902	0.000000000000000E+000	0.0528902	0.0000000E+000	0.000000000000000E+000	0.000940679
2	0	0	0	0	0	0	630.983	-0.749999	-0.75042	-1.25207	-0.191527	-0.191527	11	-0.053202	0	0.053202	0.000000000000000E+000	0.053202	0.0000000E+000	0.000000000000000E+000	0.000939575
2	0	0	0	0	0	0	631.883	-0.749999	-0.750401	-1.24989	-0.192651	-0.192651	11	-0.0535141	0	0.0535141	0.000000000000000E+000	0.0535141	0.0000000E+000	0.000000000000000E+000	0.000937915
2	0	0	0	0	0	0	632.783	-0.749999	-0.750477	-1.24744	-0.193773	-0.193773	11	-0.0538259	0	0.0538259	0.000000000000000E+000	0.0538259	0.0000000E+000	0.000000000000000E+000	0.000936174
2	0	0	0	0	0	0	633.683	-0.749999	-0.750591	-1.24681	-0.194895	-0.194895	11	-0.0541376	0	0.0541376	0.000000000000000E+000	0.0541376	0.0000000E+000	0.000000000000000E+000	0.000935843
2	0	0	0	0	0	0	634.583	-0.749999	-0.750591	-1.24469	-0.196017	-0.196017	11	-0.0544492	0	0.0544492	0.000000000000000E+000	0.0544492	0.0000000E+000	0.000000000000000E+000	0.000934254
2	0	0	0	0	0	0	635.483	-0.749999	-0.75042	-1.2437	-0.197139	-0.197139	11	-0.054761	0	0.054761	0.000000000000000E+000	0.054761	0.0000000E+000	0.000000000000000E+000	0.000933295
2	0	0	0	0	0	0	636.383	-0.749999	-0.750477	-1.24265	-0.198262	-0.198262	11	-0.0550727	0	0.0550727	0.000000000000000E+000	0.0550727	0.0000000E+000	0.000000000000000E+000	0.000932579
2	0	0	0	0	0	0	637.283	-0.749999	-0.750362	-1.24132	-0.199383	-0.199383	11	-0.0553843	0	0.0553843	0.000000000000000E+000	0.0553843	0.0000000E+000	0.000000000000000E+000	0.000931438
2	0	0	0	0	0	0	638.183	-0.749999	-0.750401	-1.2377	-0.200504	-0.200504	11	-0.0556956	0	0.0556956	0.000000000000000E+000	0.0556956	0.0000000E+000	0.000000000000000E+000	0.000928768
2	0	0	0	0	0	0	639.083	-0.749999	-0.750534	-1.22396	-0.20161	-0.20161	11	-0.0560027	0	0.0560027	0.000000000000000E+000	0.0560027	0.0000000E+000	0.000000000000000E+000	0.000918622
2	0	0	0	0	0	0	639.983	-0.749999	-0.75042	-1.19947	-0.202698	-0.202698	11	-0.056305	0	0.056305	0.000000000000000E+000	0.056305	0.0000000E+000	0.000000000000000E+000	0.000900105
2	0	0	0	0	0	0	640.883	-0.749999	-0.750553	-1.20168	-0.203777	-0.203777	11	-0.0566048	0	0.0566048	0.000000000000000E+000	0.0566048	0.0000000E+000	0.000000000000000E+000	0.000901927
2	0	0	0	0	0	0	641.783	-0.749999	-0.75042	-1.19306	-0.204853	-0.204853	11	-0.0569037	0	0.0569037	0.000000000000000E+000	0.0569037	0.0000000E+000	0.000000000000000E+000	0.000895294
2	0	0	0	0	0	0	642.683	-0.749999	-0.750362	-1.19326	-0.205926	-0.205926	11	-0.0572017	0	0.0572017	0.000000000000000E+000	0.0572017	0.0000000E+000	0.000000000000000E+000	0.000895379
2	0	0	0	0	0	0	643.583	-0.749999	-0.750401	-1.19292	-0.207	-0.207	11	-0.0574999	0	0.0574999	0.000000000000000E+000	0.0574999	0.0000000E+000	0.000000000000000E+000	0.000895167
2	0	0	0	0	0	0	644.483	-0.749999	-0.75042	-1.18919	-0.208071	-0.208071	11	-0.0577976	0	0.0577976	0.000000000000000E+000	0.0577976	0.0000000E+000	0.000000000000000E+000	0.000892389
2	0	0	0	0	0	0	645.383	-0.749999	-0.75042	-1.19373	-0.209145	-0.209145	11	-0.0580958	0	0.0580958	0.000000000000000E+000	0.0580958	0.0000000E+000	0.000000000000000E+000	0.000895796
2	0	0	0	0	0	0	646.283	-0.749999	-0.750515	-1.18558	-0.210216	-0.210216	11	-0.0583933	0	0.0583933	0.000000000000000E+000	0.0583933	0.0000000E+000	0.000000000000000E+000	0.000889798
2	0	0	0	0	0	0	647.183	-0.749999	-0.750515	-1.19277	-0.211288	-0.211288	11	-0.0586912	0	0.0586912	0.000000000000000E+000	0.0586912	0.0000000E+000	0.000000000000000E+000	0.000895188
2	0	0	0	0	0	0	648.083	-0.749999	-0.750477	-1.18664	-0.212359	-0.212359	11	-0.0589887	0	0.0589887	0.000000000000000E+000	0.0589887	0.0000000E+000	0.000000000000000E+000	0.000890546
2	0	0	0	0	0	0	648.983	-0.749999	-0.750401	-1.19491	-0.213432	-0.213432	11	-0.0592866	0	0.0592866	0.000000000000000E+000	0.0592866	0.0000000E+000	0.000000000000000E+000	0.000896663
2	0	0	0	0	0	0	649.883	-0.749999	-0.750458	-1.18759	-0.214503	-0.214503	11	-0.0595842	0	0.0595842	0.000000000000000E+000	0.0595842	0.0000000E+000	0.000000000000000E+000	0.000891238
2	0	0	0	0	0	0	650.783	-0.749999	-0.750439	-1.19694	-0.215576	-0.215576	11	-0.0598821	0	0.0598821	0.000000000000000E+000	0.0598821	0.0000000E+000	0.000000000000000E+000	0.000898234
2	0	0	0	0	0	0	651.683	-0.749999	-0.750515	-1.19055	-0.216647	-0.216647	11	-0.0601798	0	0.0601798	0.000000000000000E+000	0.0601798	0.0000000E+000	0.000000000000000E+000	0.000893528
2	0	0	0	0	0	0	652.583	-0.749999	-0.750534	-1.19563	-0.217719	-0.217719	11	-0.0604775	0	0.0604775	0.000000000000000E+000	0.0604775	0.0000000E+000	0.000000000000000E+000	0.00089736
2	0	0	0	0	0	0	653.483	-0.749999	-0.75042	-1.18882	-0.218791	-0.218791	11	-0.0607753	0	0.0607753	0.000000000000000E+000	0.0607753	0.0000000E+000	0.000000000000000E+000	0.000892111
2	0	0	0	0	0	0	654.383	-0.749999	-0.750439	-1.19455	-0.219863	-0.219863	11	-0.061073	0	0.061073	0.000000000000000E+000	0.061073	0.0000000E+000	0.000000000000000E+000	0.000896434
2	0	0	0	0	0	0	655.283	-0.749999	-0.75042	-1.19126	-0.220936	-0.220936	11	-0.061371	0	0.061371	0.000000000000000E+000	0.061371	0.0000000E+000	0.000000000000000E+000	0.000893942
2	0	0	0	0	0	0	656.183	-0.749999	-0.750401	-1.1915	-0.222007	-0.222007	11	-0.0616686	0	0.0616686	0.000000000000000E+000	0.0616686	0.0000000E+000	0.000000000000000E+000	0.0008941
2	0	0	0	0	0	0	657.083	-0.749999	-0.750477	-1.19045	-0.223079	-0.223079	11	-0.0619664	0	0.0619664	0.000000000000000E+000	0.0619664	0.0000000E+000	0.000000000000000E+000	0.000893404
2	0	0	0	0	0	0	657.983	-0.749999	-0.750515	-1.18596	-0.224149	-0.224149	11	-0.0622636	0	0.0622636	0.000000000000000E+000	0.0622636	0.0000000E+000	0.000000000000000E+000	0.000890079
2	0	0	0	0	0	0	658.883	-0.749999	-0.750477	-1.19038	-0.22522	-0.22522	11	-0.0625612	0	0.0625612	0.000000000000000E+000	0.0625612	0.0000000E+000	0.000000000000000E+000	0.000893356
2	0	0	0	0	0	0	659.783	-0.749999	-0.750362	-1.18301	-0.22629	-0.22629	11	-0.0628582	0	0.0628582	0.000000000000000E+000	0.0628582	0.0000000E+000	0.000000000000000E+000	0.000887689
2	0	0	0	0	0	0	660.683	-0.749999	-0.750458	-1.19161	-0.22736	-0.22736	11	-0.0631556	0	0.0631556	0.000000000000000E+000	0.0631556	0.0000000E+000	0.000000000000000E+000	0.000894251
2	0	0	0	0	0	0	661.583	-0.749999	-0.750496	-1.18176	-0.228429	-0.228429	11	-0.0634525	0	0.0634525	0.000000000000000E+000	0.0634525	0.0000000E+000	0.000000000000000E+000	0.000886903
2	0	0	0	0	0	0	662.483	-0.749999	-0.750649	-1.1986	-0.229502	-0.229502	11	-0.0637507	0	0.0637507	0.000000000000000E+000	0.0637507	0.0000000E+000	0.000000000000000E+000	0.000899725
2	0	0	0	0	0	0	663.383	-0.749999	-0.750496	-1.43134	-0.230702	-0.230702	11	-0.064084	0	0.064084	0.000000000000000E+000	0.064084	0.0000000E+000	0.000000000000000E+000	0.00107421
2	0	0	0	0	0	0	664.283	-0.749999	-0.750439	-1.27152	-0.231898	-0.231898	11	-0.0644162	0	0.0644162	0.000000000000000E+000	0.0644162	0.0000000E+000	0.000000000000000E+000	0.000954198
2	0	0	0	0	0	0	665.183	-0.749999	-0.750362	-1.17744	-0.232993	-0.232993	11	-0.0647203	0	0.0647203	0.000000000000000E+000	0.0647203	0.0000000E+000	0.000000000000000E+000	0.000883509
2	0	0	0	0	0	0	666.083	-0.749999	-0.750248	-1.12021	-0.234016	-0.234016	11	-0.0650046	0	0.0650046	0.000000000000000E+000	0.0650046	0.0000000E+000	0.000000000000000E+000	0.000840434
2	0	0	0	0	0	0	666.983	-0.749999	-0.750458	-1.08013	-0.235006	-0.235006	11	-0.0652794	0	0.0652794	0.000000000000000E+000	0.0652794	0.0000000E+000	0.000000000000000E+000	0.00081059
2	0	0	0	0	0	0	667.883	-0.749999	-0.75042	-1.06389	-0.235966	-0.235966	11	-0.065546	0	0.065546	0.000000000000000E+000	0.065546	0.0000000E+000	0.000000000000000E+000	0.000798366
2	0	0	0	0	0	0	668.783	-0.749999	-0.750496	-1.04052	-0.236911	-0.236911	11	-0.0658085	0	0.0658085	0.000000000000000E+000	0.0658085	0.0000000E+000	0.000000000000000E+000	0.000780908
2	0	0	0	0	0	0	669.683	-0.749999	-0.750362	-1.03543	-0.237843	-0.237843	11	-0.0660675	0	0.0660675	0.000000000000000E+000	0.0660675	0.0000000E+000	0.000000000000000E+000	0.000776946
2	0	0	0	0	0	0	670.583	-0.749999	-0.750458	-1.01908	-0.238766	-0.238766	11	-0.0663239	0	0.0663239	0.000000000000000E+000	0.0663239	0.0000000E+000	0.000000000000000E+000	0.000764779
2	0	0	0	0	0	0	671.483	-0.749999	-0.75042	-1.01742	-0.239686	-0.239686	11	-0.0665794	0	0.0665794	0.000000000000000E+000	0.0665794	0.0000000E+000	0.000000000000000E+000	0.000763491
2	0	0	0	0	0	0	672.383	-0.749999	-0.750611	-1.01026	-0.240599	-0.240599	11	-0.066833	0	0.066833	0.000000000000000E+000	0.066833	0.0000000E+000	0.000000000000000E+000	0.000758314
2	0	0	0	0	0	0	673.283	-0.749999	-0.75042	-1.01274	-0.241512	-0.241512	11	-0.0670866	0	0.0670866	0.000000000000000E+000	0.0670866	0.0000000E+000	0.000000000000000E+000	0.000759981
2	0	0	0	0	0	0	674.183	-0.749999	-0.750515	-1.0109	-0.242418	-0.242418	11	-0.0673383	0	0.0673383	0.000000000000000E+000	0.0673383	0.0000000E+000	0.000000000000000E+000	0.000758695
2	0	0	0	0	0	0	675.083	-0.749999	-0.750572	-1.07595	-0.243347	-0.243347	11	-0.0675963	0	0.0675963	0.000000000000000E+000	0.0675963	0.0000000E+000	0.000000000000000E+000	0.00080758
2	0	0	0	0	0	0	675.983	-0.749999	-0.750515	-1.18186	-0.244377	-0.244377	11	-0.0678826	0	0.0678826	0.000000000000000E+000	0.0678826	0.0000000E+000	0.000000000000000E+000	0.000887004
2	0	0	0	0	0	0	676.883	-0.749999	-0.750477	-1.21494	-0.245466	-0.245466	11	-0.0681849	0	0.0681849	0.000000000000000E+000	0.0681849	0.0000000E+000	0.000000000000000E+000	0.000911784
2	0	0	0	0	0	0	677.783	-0.749999	-0.750381	-1.22505	-0.246572	-0.246572	11	-0.0684923	0	0.0684923	0.000000000000000E+000	0.0684923	0.0000000E+000	0.000000000000000E+000	0.000919255
2	0	0	0	0	0	0	678.683	-0.749999	-0.750458	-1.23396	-0.247684	-0.247684	11	-0.0688011	0	0.0688011	0.000000000000000E+000	0.0688011	0.0000000E+000	0.000000000000000E+000	0.000926037
2	0	0	0	0	0	0	679.583	-0.749999	-0.750477	-1.23965	-0.248798	-0.248798	11	-0.0691107	0	0.0691107	0.000000000000000E+000	0.0691107	0.0000000E+000	0.000000000000000E+000	0.000930325
2	0	0	0	0	0	0	680.483	-0.749999	-0.750496	-1.24281	-0.249914	-0.249914	11	-0.0694205	0	0.0694205	0.000000000000000E+000	0.0694205	0.0000000E+000	0.000000000000000E+000	0.000932721
2	0	0	0	0	0	0	681.383	-0.749999	-0.750305	-1.2445	-0.251029	-0.251029	11	-0.0697304	0	0.0697304	0.000000000000000E+000	0.0697304	0.0000000E+000	0.000000000000000E+000	0.000933751
2	0	0	0	0	0	0	682.283	-0.749999	-0.75042	-1.24384	-0.252143	-0.252143	11	-0.0700398	0	0.0700398	0.000000000000000E+000	0.0700398	0.0000000E+000	0.000000000000000E+000	0.0009334
2	0	0	0	0	0	0	683.183	-0.749999	-0.750439	-1.24175	-0.253256	-0.253256	11	-0.0703488	0	0.0703488	0.000000000000000E+000	0.0703488	0.0000000E+000	0.000000000000000E+000	0.00093186
2	0	0	0	0	0	0	684.083	-0.749999	-0.750458	-1.23887	-0.254369	-0.254369	11	-0.0706581	0	0.0706581	0.000000000000000E+000	0.0706581	0.0000000E+000	0.000000000000000E+000	0.000929719
2	0	0	0	0	0	0	684.983	-0.749999	-0.750477	-1.24092	-0.255484	-0.255484	11	-0.0709678	0	0.0709678	0.000000000000000E+000	0.0709678	0.0000000E+000	0.000000000000000E+000	0.000931286
2	0	0	0	0	0	0	685.883	-0.749999	-0.750343	-1.23929	-0.256599	-0.256599	11	-0.0712776	0	0.0712776	0.000000000000000E+000	0.0712776	0.0000000E+000	0.000000000000000E+000	0.00092989
2	0	0	0	0	0	0	686.783	-0.749999	-0.750477	-1.28052	-0.257728	-0.257728	11	-0.071591	0	0.071591	0.000000000000000E+000	0.071591	0.0000000E+000	0.000000000000000E+000	0.000961004
2	0	0	0	0	0	0	687.683	-0.749999	-0.750401	-1.29503	-0.258893	-0.258893	11	-0.0719146	0	0.0719146	0.000000000000000E+000	0.0719146	0.0000000E+000	0.000000000000000E+000	0.000971792
2	0	0	0	0	0	0	688.583	-0.749999	-0.750496	-1.30682	-0.260064	-0.260064	11	-0.0722401	0	0.0722401	0.000000000000000E+000	0.0722401	0.0000000E+000	0.000000000000000E+000	0.000980766
2	0	0	0	0	0	0	689.483	-0.749999	-0.75042	-1.30423	-0.261235	-0.261235	11	-0.0725654	0	0.0725654	0.000000000000000E+000	0.0725654	0.0000000E+000	0.000000000000000E+000	0.000978719
2	0	0	0	0	0	0	690.383	-0.749999	-0.750477	-1.29636	-0.262406	-0.262406	11	-0.0728905	0	0.0728905	0.000000000000000E+000	0.0728905	0.0000000E+000	0.000000000000000E+000	0.000972889
2	0	0	0	0	0	0	691.283	-0.749999	-0.750381	-1.29733	-0.263576	-0.263576	11	-0.0732156	0	0.0732156	0.000000000000000E+000	0.0732156	0.0000000E+000	0.000000000000000E+000	0.000973492
2	0	0	0	0	0	0	692.183	-0.749999	-0.750477	-1.30542	-0.264747	-0.264747	11	-0.0735407	0	0.0735407	0.000000000000000E+000	0.0735407	0.0000000E+000	0.000000000000000E+000	0.00097969
2	0	0	0	0	0	0	693.083	-0.749999	-0.750591	-1.29911	-0.265917	-0.265917	11	-0.0738658	0	0.0738658	0.000000000000000E+000	0.0738658	0.0000000E+000	0.000000000000000E+000	0.000975097
2	0	0	0	0	0	0	693.983	-0.749999	-0.750439	-1.29326	-0.267086	-0.267086	11	-0.0741907	0	0.0741907	0.000000000000000E+000	0.0741907	0.0000000E+000	0.000000000000000E+000	0.000970514
2	0	0	0	0	0	0	694.883	-0.749999	-0.750381	-1.3139	-0.268259	-0.268259	11	-0.0745164	0	0.0745164	0.000000000000000E+000	0.0745164	0.0000000E+000	0.000000000000000E+000	0.000985923
2	0	0	0	0	0	0	695.783	-0.749999	-0.750553	-1.34245	-0.269461	-0.269461	11	-0.0748502	0	0.0748502	0.000000000000000E+000	0.0748502	0.0000000E+000	0.000000000000000E+000	0.00100758
2	0	0	0	0	0	0	696.683	-0.749999	-0.750572	-1.34575	-0.27067	-0.27067	11	-0.0751863	0	0.0751863	0.000000000000000E+000	0.0751863	0.0000000E+000	0.000000000000000E+000	0.00101008
2	0	0	0	0	0	0	697.583	-0.749999	-0.750477	-1.34698	-0.271881	-0.271881	11	-0.0755224	0	0.0755224	0.000000000000000E+000	0.0755224	0.0000000E+000	0.000000000000000E+000	0.00101088
2	0	0	0	0	0	0	698.483	-0.749999	-0.750381	-1.34673	-0.273091	-0.273091	11	-0.0758585	0	0.0758585	0.000000000000000E+000	0.0758585	0.0000000E+000	0.000000000000000E+000	0.00101056
2	0	0	0	0	0	0	699.383	-0.749999	-0.750458	-1.34838	-0.2743	-0.2743	11	-0.0761945	0	0.0761945	0.000000000000000E+000	0.0761945	0.0000000E+000	0.000000000000000E+000	0.0010119
2	0	0	0	0	0	0	700.283	-0.749999	-0.750458	-1.34853	-0.27551	-0.27551	11	-0.0765306	0	0.0765306	0.000000000000000E+000	0.0765306	0.0000000E+000	0.000000000000000E+000	0.00101202
2	0	0	0	0	0	0	701.183	-0.749999	-0.750439	-1.34762	-0.27672	-0.27672	11	-0.0768666	0	0.0768666	0.000000000000000E+000	0.0768666	0.0000000E+000	0.000000000000000E+000	0.0010113
2	0	0	0	0	0	0	702.083	-0.749999	-0.750439	-1.34667	-0.277929	-0.277929	11	-0.0772025	0	0.0772025	0.000000000000000E+000	0.0772025	0.0000000E+000	0.000000000000000E+000	0.00101059
2	0	0	0	0	0	0	702.983	-0.749999	-0.750515	-1.34483	-0.279138	-0.279138	11	-0.0775383	0	0.0775383	0.000000000000000E+000	0.0775383	0.0000000E+000	0.000000000000000E+000	0.00100932
2	0	0	0	0	0	0	703.883	-0.749999	-0.750477	-1.39376	-0.280365	-0.280365	11	-0.0778791	0	0.0778791	0.000000000000000E+000	0.0778791	0.0000000E+000	0.000000000000000E+000	0.00104598
2	0	0	0	0	0	0	704.783	-0.749999	-0.750439	-1.39857	-0.281623	-0.281623	11	-0.0782287	0	0.0782287	0.000000000000000E+000	0.0782287	0.0000000E+000	0.000000000000000E+000	0.00104954
2	0	0	0	0	0	0	705.683	-0.749999	-0.750439	-1.39414	-0.282879	-0.282879	11	-0.0785776	0	0.0785776	0.000000000000000E+000	0.0785776	0.0000000E+000	0.000000000000000E+000	0.00104621
2	0	0	0	0	0	0	706.583	-0.749999	-0.750439	-1.39642	-0.284136	-0.284136	11	-0.0789267	0	0.0789267	0.000000000000000E+000	0.0789267	0.0000000E+000	0.000000000000000E+000	0.00104792
2	0	0	0	0	0	0	707.483	-0.749999	-0.750515	-1.39703	-0.285394	-0.285394	11	-0.079276	0	0.079276	0.000000000000000E+000	0.079276	0.0000000E+000	0.000000000000000E+000	0.00104849
2	0	0	0	0	0	0	708.383	-0.749999	-0.750439	-1.39582	-0.286649	-0.286649	11	-0.0796247	0	0.0796247	0.000000000000000E+000	0.0796247	0.0000000E+000	0.000000000000000E+000	0.00104748
2	0	0	0	0	0	0	709.283	-0.749999	-0.750439	-1.39568	-0.287905	-0.287905	11	-0.0799735	0	0.0799735	0.000000000000000E+000	0.0799735	0.0000000E+000	0.000000000000000E+000	0.00104737
2	0	0	0	0	0	0	710.183	-0.749999	-0.750362	-1.39305	-0.28916	-0.28916	11	-0.0803222	0	0.0803222	0.000000000000000E+000	0.0803222	0.0000000E+000	0.000000000000000E+000	0.00104529
2	0	0	0	0	0	0	711.083	-0.749999	-0.750401	-1.4223	-0.290429	-0.290429	11	-0.0806747	0	0.0806747	0.000000000000000E+000	0.0806747	0.0000000E+000	0.000000000000000E+000	0.00106729
2	0	0	0	0	0	0	711.983	-0.749999	-0.750439	-1.42262	-0.291708	-0.291708	11	-0.08103	0	0.08103	0.000000000000000E+000	0.08103	0.0000000E+000	0.000000000000000E+000	0.00106759
2	0	0	0	0	0	0	712.883	-0.749999	-0.750343	-1.41776	-0.292986	-0.292986	11	-0.0813849	0	0.0813849	0.000000000000000E+000	0.0813849	0.0000000E+000	0.000000000000000E+000	0.00106381
2	0	0	0	0	0	0	713.783	-0.749999	-0.750305	-1.41904	-0.294263	-0.294263	11	-0.0817396	0	0.0817396	0.000000000000000E+000	0.0817396	0.0000000E+000	0.000000000000000E+000	0.00106472
2	0	0	0	0	0	0	714.683	-0.749999	-0.750515	-1.41462	-0.295538	-0.295538	11	-0.0820938	0	0.0820938	0.000000000000000E+000	0.0820938	0.0000000E+000	0.000000000000000E+000	0.00106169
2	0	0	0	0	0	0	715.583	-0.749999	-0.75042	-1.418	-0.296812	-0.296812	11	-0.0824479	0	0.0824479	0.000000000000000E+000	0.0824479	0.0000000E+000	0.000000000000000E+000	0.0010641
2	0	0	0	0	0	0	716.483	-0.749999	-0.750401	-1.41397	-0.298086	-0.298086	11	-0.0828016	0	0.0828016	0.000000000000000E+000	0.0828016	0.0000000E+000	0.000000000000000E+000	0.00106105
2	0	0	0	0	0	0	717.383	-0.749999	-0.750458	-1.41622	-0.29936	-0.29936	11	-0.0831555	0	0.0831555	0.000000000000000E+000	0.0831555	0.0000000E+000	0.000000000000000E+000	0.00106282
2	0	0	0	0	0	0	718.283	-0.749999	-0.750401	-1.41558	-0.300634	-0.300634	11	-0.0835094	0	0.0835094	0.000000000000000E+000	0.0835094	0.0000000E+000	0.000000000000000E+000	0.00106225
2	0	0	0	0	0	0	719.183	-0.749999	-0.750534	-1.41346	-0.301907	-0.301907	11	-0.083863	0	0.083863	0.000000000000000E+000	0.083863	0.0000000E+000	0.000000000000000E+000	0.00106085
2	0	0	0	0	0	0	720.083	-0.749999	-0.750343	-1.41542	-0.303179	-0.303179	11	-0.0842164	0	0.0842164	0.000000000000000E+000	0.0842164	0.0000000E+000	0.000000000000000E+000	0.00106205
2	0	0	0	0	0	0	720.983	-0.749999	-0.750343	-1.45195	-0.304473	-0.304473	11	-0.0845757	0	0.0845757	0.000000000000000E+000	0.0845757	0.0000000E+000	0.000000000000000E+000	0.00108946
2	0	0	0	0	0	0	721.883	-0.749999	-0.750458	-1.44516	-0.305774	-0.305774	11	-0.0849373	0	0.0849373	0.000000000000000E+000	0.0849373	0.0000000E+000	0.000000000000000E+000	0.00108453
2	0	0	0	0	0	0	722.783	-0.749999	-0.750515	-1.4444	-0.307075	-0.307075	11	-0.0852985	0	0.0852985	0.000000000000000E+000	0.0852985	0.0000000E+000	0.000000000000000E+000	0.00108404
2	0	0	0	0	0	0	723.683	-0.749999	-0.750649	-1.39485	-0.308339	-0.308339	11	-0.0856496	0	0.0856496	0.000000000000000E+000	0.0856496	0.0000000E+000	0.000000000000000E+000	0.00104704
2	0	0	0	0	0	0	724.583	-0.749999	-0.75042	-1.39877	-0.309596	-0.309596	11	-0.0859988	0	0.0859988	0.000000000000000E+000	0.0859988	0.0000000E+000	0.000000000000000E+000	0.00104966
2	0	0	0	0	0	0	725.483	-0.749999	-0.750458	-1.39965	-0.310855	-0.310855	11	-0.0863485	0	0.0863485	0.000000000000000E+000	0.0863485	0.0000000E+000	0.000000000000000E+000	0.00105038
2	0	0	0	0	0	0	726.383	-0.749999	-0.750591	-1.40231	-0.312116	-0.312116	11	-0.086699	0	0.086699	0.000000000000000E+000	0.086699	0.0000000E+000	0.000000000000000E+000	0.00105257
2	0	0	0	0	0	0	727.283	-0.749999	-0.750439	-1.40391	-0.31338	-0.31338	11	-0.0870499	0	0.0870499	0.000000000000000E+000	0.0870499	0.0000000E+000	0.000000000000000E+000	0.00105355
2	0	0	0	0	0	0	728.183	-0.749999	-0.750458	-1.40564	-0.314644	-0.314644	11	-0.0874011	0	0.0874011	0.000000000000000E+000	0.0874011	0.0000000E+000	0.000000000000000E+000	0.00105487
2	0	0	0	0	0	0	729.083	-0.749999	-0.750534	-1.40644	-0.31591	-0.31591	11	-0.0877527	0	0.0877527	0.000000000000000E+000	0.0877527	0.0000000E+000	0.000000000000000E+000	0.00105559
2	0	0	0	0	0	0	729.983	-0.749999	-0.750591	-1.40732	-0.317177	-0.317177	11	-0.0881046	0	0.0881046	0.000000000000000E+000	0.0881046	0.0000000E+000	0.000000000000000E+000	0.00105632
2	0	0	0	0	0	0	730.883	-0.749999	-0.750496	-1.40747	-0.318443	-0.318443	11	-0.0884565	0	0.0884565	0.000000000000000E+000	0.0884565	0.0000000E+000	0.000000000000000E+000	0.0010563
2	0	0	0	0	0	0	731.783	-0.749999	-0.750401	-1.40839	-0.319711	-0.319711	11	-0.0888087	0	0.0888087	0.000000000000000E+000	0.0888087	0.0000000E+000	0.000000000000000E+000	0.00105686
2	0	0	0	0	0	0	732.683	-0.749999	-0.750381	-1.43107	-0.320987	-0.320987	11	-0.0891629	0	0.0891629	0.000000000000000E+000	0.0891629	0.0000000E+000	0.000000000000000E+000	0.00107385
2	0	0	0	0	0	0	733.583	-0.749999	-0.750515	-1.42855	-0.322273	-0.322273	11	-0.0895202	0	0.0895202	0.000000000000000E+000	0.0895202	0.0000000E+000	0.000000000000000E+000	0.00107215
2	0	0	0	0	0	0	734.483	-0.749999	-0.750439	-1.42871	-0.323558	-0.323558	11	-0.0898773	0	0.0898773	0.000000000000000E+000	0.0898773	0.0000000E+000	0.000000000000000E+000	0.00107216
2	0	0	0	0	0	0	735.383	-0.749999	-0.750439	-1.42669	-0.324843	-0.324843	11	-0.0902343	0	0.0902343	0.000000000000000E+000	0.0902343	0.0000000E+000	0.000000000000000E+000	0.00107064
2	0	0	0	0	0	0	736.283	-0.749999	-0.750553	-1.40904	-0.326126	-0.326126	11	-0.0905905	0	0.0905905	0.000000000000000E+000	0.0905905	0.0000000E+000	0.000000000000000E+000	0.00105756
2	0	0	0	0	0	0	737.183	-0.749999	-0.750611	-1.38418	-0.327362	-0.327362	11	-0.0909339	0	0.0909339	0.000000000000000E+000	0.0909339	0.0000000E+000	0.000000000000000E+000	0.00103898
2	0	0	0	0	0	0	738.083	-0.749999	-0.750534	-1.39558	-0.328614	-0.328614	11	-0.0912817	0	0.0912817	0.000000000000000E+000	0.0912817	0.0000000E+000	0.000000000000000E+000	0.00104743
2	0	0	0	0	0	0	738.983	-0.749999	-0.750496	-1.39999	-0.329872	-0.329872	11	-0.0916312	0	0.0916312	0.000000000000000E+000	0.0916312	0.0000000E+000	0.000000000000000E+000	0.00105069
2	0	0	0	0	0	0	739.883	-0.749999	-0.75063	-1.40197	-0.331134	-0.331134	11	-0.0919816	0	0.0919816	0.000000000000000E+000	0.0919816	0.0000000E+000	0.000000000000000E+000	0.00105236
2	0	0	0	0	0	0	740.783	-0.749999	-0.750439	-1.40499	-0.332397	-0.332397	11	-0.0923326	0	0.0923326	0.000000000000000E+000	0.0923326	0.0000000E+000	0.000000000000000E+000	0.00105436
2	0	0	0	0	0	0	741.197	-0.749999	-0.750324	-1.40446	-0.33298	-0.33298	11	-0.0924943	0	0.0924943	0.000000000000000E+000	0.0924943	0.0000000E+000	0.000000000000000E+000	0.0010538