File: ZnPVAGAECH_07 03-20-22-ZnGAPVA ECH-1600 rpm at -0_7V vs RHE RDE1_02_CA_C05(1).mpt
EC-Lab ASCII FILE
Nb header lines : 62

Chronoamperometry / Chronocoulometry

Run on channel : 5 (SN 6729)
User :
CE vs. WE compliance from -10 V to 10 V
Electrode connection : standard
Potential control : Ewe
Ewe ctrl range : min = -2.50 V, max = 2.50 V
Safety Limits :
	Do not start on E overload
Acquisition started on : 03/20/2022 14:08:37.437
Technique started on : 03/20/2022 14:08:42.585
Loaded Setting File :  NONE
Saved on :
	File : 03-20-22-ZnGAPVA  ECH-1600 rpm at -0_8V vs RHE RDE1_02_CA_C05.mpr
	Directory : \\research-scb.egr.msu.edu\research-scb\Mindy\Koutecky Levich\Zn GA PVA 001\ECH\03-20-22\
	Host : 35.9.136.210
Device : VSP (SN 0012)
Address : 35.9.137.65
EC-Lab for windows v11.43 (software)
Internet server v11.40 (firmware)
Command interpretor v11.40 (firmware)
Electrode material :
Initial state :
Electrolyte :
Comments :
Electrode surface area : 0.196 cm²
Characteristic mass : 0.001 g
Equivalent Weight : 0.000 g/eq.
Density : 0.000 g/cm3
Volume (V) : 0.001 cm³
Cycle Definition : Charge/Discharge alternance
Ei (V)              -0.700
vs.                 Ref
ti (h:m:s)          0:30:0.0000
Imax                pass
unit Imax           mA
Imin                pass
unit Imin           mA
dQM                 0.000
unit dQM            mA.h
record              <I>
dI                  5.000
unit dI             µA
dQ                  0.000
unit dQ             mA.h
dt (s)              0.1000
dta (s)             0.1000
E range min (V)     -2.500
E range max (V)     2.500
I Range             Auto
I Range min         Unset
I Range max         Unset
I Range init        Unset
Bandwidth           5
goto Ns'            0
nc cycles           0

mode	ox/red	error	control changes	Ns changes	counter inc.	Ns	time/s	control/V	Ewe/V	<I>/mA	dQ/C	(Q-Qo)/C	I Range	Q charge/discharge/mA.h	half cycle	Q discharge/mA.h	Q charge/mA.h	Capacity/mA.h	Efficiency/%	cycle number	P/W
2	0	0	0	0	0	0	5.1484	-0.700002	-0.700422	-2.28499	-9.68528e-05	-9.68528e-05	11	-2.69035e-05	0	2.69035e-05	0.000000000000000E+000	2.69035e-05	0.0000000E+000	0.000000000000000E+000	0.00160046
2	0	0	0	0	0	0	6.1484	-0.700002	-0.700422	-1.74996	-0.00202719	-0.00202719	11	-0.000563109	0	0.000563109	0.000000000000000E+000	0.000563109	0.0000000E+000	0.000000000000000E+000	0.00122571
2	0	0	0	0	0	0	7.1484	-0.700002	-0.700461	-1.55475	-0.00366288	-0.00366288	11	-0.00101747	0	0.00101747	0.000000000000000E+000	0.00101747	0.0000000E+000	0.000000000000000E+000	0.00108904
2	0	0	0	0	0	0	8.1484	-0.700002	-0.700556	-1.44404	-0.00515237	-0.00515237	11	-0.00143122	0	0.00143122	0.000000000000000E+000	0.00143122	0.0000000E+000	0.000000000000000E+000	0.00101163
2	0	0	0	0	0	0	9.1484	-0.700002	-0.700556	-1.3871	-0.00656234	-0.00656234	11	-0.00182287	0	0.00182287	0.000000000000000E+000	0.00182287	0.0000000E+000	0.000000000000000E+000	0.000971742
2	0	0	0	0	0	0	10.1484	-0.700002	-0.700422	-1.35651	-0.00793074	-0.00793074	11	-0.00220298	0	0.00220298	0.000000000000000E+000	0.00220298	0.0000000E+000	0.000000000000000E+000	0.000950128
2	0	0	0	0	0	0	11.1484	-0.700002	-0.700403	-1.33595	-0.00927542	-0.00927542	11	-0.0025765	0	0.0025765	0.000000000000000E+000	0.0025765	0.0000000E+000	0.000000000000000E+000	0.000935702
2	0	0	0	0	0	0	12.1484	-0.700002	-0.700461	-1.32177	-0.0106034	-0.0106034	11	-0.00294538	0	0.00294538	0.000000000000000E+000	0.00294538	0.0000000E+000	0.000000000000000E+000	0.000925846
2	0	0	0	0	0	0	13.1484	-0.700002	-0.700537	-1.32367	-0.0119264	-0.0119264	11	-0.00331289	0	0.00331289	0.000000000000000E+000	0.00331289	0.0000000E+000	0.000000000000000E+000	0.000927278
2	0	0	0	0	0	0	14.1484	-0.700002	-0.700384	-1.317	-0.0132468	-0.0132468	11	-0.00367965	0	0.00367965	0.000000000000000E+000	0.00367965	0.0000000E+000	0.000000000000000E+000	0.000922403
2	0	0	0	0	0	0	15.1484	-0.700002	-0.700613	-1.31294	-0.0145607	-0.0145607	11	-0.00404465	0	0.00404465	0.000000000000000E+000	0.00404465	0.0000000E+000	0.000000000000000E+000	0.000919861
2	0	0	0	0	0	0	16.1484	-0.700002	-0.700422	-1.31163	-0.0158715	-0.0158715	11	-0.00440875	0	0.00440875	0.000000000000000E+000	0.00440875	0.0000000E+000	0.000000000000000E+000	0.000918695
2	0	0	0	0	0	0	17.1484	-0.700002	-0.700537	-1.30682	-0.0171803	-0.0171803	11	-0.00477231	0	0.00477231	0.000000000000000E+000	0.00477231	0.0000000E+000	0.000000000000000E+000	0.000915477
2	0	0	0	0	0	0	18.1484	-0.700002	-0.70048	-1.30541	-0.0184872	-0.0184872	11	-0.00513534	0	0.00513534	0.000000000000000E+000	0.00513534	0.0000000E+000	0.000000000000000E+000	0.000914412
2	0	0	0	0	0	0	19.1484	-0.700002	-0.700308	-1.3035	-0.0197901	-0.0197901	11	-0.00549725	0	0.00549725	0.000000000000000E+000	0.00549725	0.0000000E+000	0.000000000000000E+000	0.000912851
2	0	0	0	0	0	0	20.1484	-0.700002	-0.700518	-1.30009	-0.0210911	-0.0210911	11	-0.00585865	0	0.00585865	0.000000000000000E+000	0.00585865	0.0000000E+000	0.000000000000000E+000	0.000910737
2	0	0	0	0	0	0	21.1484	-0.700002	-0.700346	-1.29773	-0.0223905	-0.0223905	11	-0.00621959	0	0.00621959	0.000000000000000E+000	0.00621959	0.0000000E+000	0.000000000000000E+000	0.000908862
2	0	0	0	0	0	0	22.1484	-0.700002	-0.700461	-1.29662	-0.0236879	-0.0236879	11	-0.00657998	0	0.00657998	0.000000000000000E+000	0.00657998	0.0000000E+000	0.000000000000000E+000	0.000908231
2	0	0	0	0	0	0	23.1484	-0.700002	-0.700461	-1.29176	-0.024982	-0.024982	11	-0.00693943	0	0.00693943	0.000000000000000E+000	0.00693943	0.0000000E+000	0.000000000000000E+000	0.000904829
2	0	0	0	0	0	0	24.1484	-0.700002	-0.700499	-1.29186	-0.0262745	-0.0262745	11	-0.00729847	0	0.00729847	0.000000000000000E+000	0.00729847	0.0000000E+000	0.000000000000000E+000	0.000904944
2	0	0	0	0	0	0	25.1484	-0.700002	-0.700422	-1.2933	-0.0275668	-0.0275668	11	-0.00765745	0	0.00765745	0.000000000000000E+000	0.00765745	0.0000000E+000	0.000000000000000E+000	0.000905857
2	0	0	0	0	0	0	26.1484	-0.700002	-0.700556	-1.28906	-0.0288572	-0.0288572	11	-0.00801589	0	0.00801589	0.000000000000000E+000	0.00801589	0.0000000E+000	0.000000000000000E+000	0.000903056
2	0	0	0	0	0	0	27.1484	-0.700002	-0.700575	-1.2851	-0.0301438	-0.0301438	11	-0.00837327	0	0.00837327	0.000000000000000E+000	0.00837327	0.0000000E+000	0.000000000000000E+000	0.000900307
2	0	0	0	0	0	0	28.1484	-0.700002	-0.700537	-1.28533	-0.0314292	-0.0314292	11	-0.00873034	0	0.00873034	0.000000000000000E+000	0.00873034	0.0000000E+000	0.000000000000000E+000	0.000900418
2	0	0	0	0	0	0	29.1484	-0.700002	-0.700594	-1.28579	-0.0327147	-0.0327147	11	-0.00908742	0	0.00908742	0.000000000000000E+000	0.00908742	0.0000000E+000	0.000000000000000E+000	0.000900818
2	0	0	0	0	0	0	30.1484	-0.700002	-0.700518	-1.2848	-0.0339998	-0.0339998	11	-0.0094444	0	0.0094444	0.000000000000000E+000	0.0094444	0.0000000E+000	0.000000000000000E+000	0.000900024
2	0	0	0	0	0	0	31.1484	-0.700002	-0.700346	-1.20206	-0.0352417	-0.0352417	11	-0.00978935	0	0.00978935	0.000000000000000E+000	0.00978935	0.0000000E+000	0.000000000000000E+000	0.000841857
2	0	0	0	0	0	0	32.1484	-0.700002	-0.700461	-1.17301	-0.0364263	-0.0364263	11	-0.0101184	0	0.0101184	0.000000000000000E+000	0.0101184	0.0000000E+000	0.000000000000000E+000	0.000821649
2	0	0	0	0	0	0	33.1484	-0.700002	-0.700346	-1.15993	-0.0375926	-0.0375926	11	-0.0104424	0	0.0104424	0.000000000000000E+000	0.0104424	0.0000000E+000	0.000000000000000E+000	0.000812351
2	0	0	0	0	0	0	34.1484	-0.700002	-0.700518	-1.15242	-0.0387488	-0.0387488	11	-0.0107636	0	0.0107636	0.000000000000000E+000	0.0107636	0.0000000E+000	0.000000000000000E+000	0.000807292
2	0	0	0	0	0	0	35.1484	-0.700002	-0.700442	-1.14782	-0.0398988	-0.0398988	11	-0.011083	0	0.011083	0.000000000000000E+000	0.011083	0.0000000E+000	0.000000000000000E+000	0.000803979
2	0	0	0	0	0	0	36.1484	-0.700002	-0.700594	-1.14587	-0.0410449	-0.0410449	11	-0.0114014	0	0.0114014	0.000000000000000E+000	0.0114014	0.0000000E+000	0.000000000000000E+000	0.000802793
2	0	0	0	0	0	0	37.1484	-0.700002	-0.700403	-1.14227	-0.0421879	-0.0421879	11	-0.0117189	0	0.0117189	0.000000000000000E+000	0.0117189	0.0000000E+000	0.000000000000000E+000	0.000800051
2	0	0	0	0	0	0	38.1484	-0.700002	-0.700537	-1.14081	-0.0433288	-0.0433288	11	-0.0120358	0	0.0120358	0.000000000000000E+000	0.0120358	0.0000000E+000	0.000000000000000E+000	0.000799179
2	0	0	0	0	0	0	39.1484	-0.700002	-0.700461	-1.1408	-0.0444689	-0.0444689	11	-0.0123525	0	0.0123525	0.000000000000000E+000	0.0123525	0.0000000E+000	0.000000000000000E+000	0.000799082
2	0	0	0	0	0	0	40.1484	-0.700002	-0.700384	-1.1401	-0.0456094	-0.0456094	11	-0.0126693	0	0.0126693	0.000000000000000E+000	0.0126693	0.0000000E+000	0.000000000000000E+000	0.000798505
2	0	0	0	0	0	0	41.1484	-0.700002	-0.700499	-1.13895	-0.0467489	-0.0467489	11	-0.0129858	0	0.0129858	0.000000000000000E+000	0.0129858	0.0000000E+000	0.000000000000000E+000	0.000797832
2	0	0	0	0	0	0	42.1484	-0.700002	-0.700537	-1.13822	-0.0478875	-0.0478875	11	-0.0133021	0	0.0133021	0.000000000000000E+000	0.0133021	0.0000000E+000	0.000000000000000E+000	0.000797362
2	0	0	0	0	0	0	43.1484	-0.700002	-0.700499	-1.1386	-0.0490255	-0.0490255	11	-0.0136182	0	0.0136182	0.000000000000000E+000	0.0136182	0.0000000E+000	0.000000000000000E+000	0.000797588
2	0	0	0	0	0	0	44.1484	-0.700002	-0.700518	-1.13879	-0.0501636	-0.0501636	11	-0.0139343	0	0.0139343	0.000000000000000E+000	0.0139343	0.0000000E+000	0.000000000000000E+000	0.000797745
2	0	0	0	0	0	0	45.1484	-0.700002	-0.700422	-1.13948	-0.0513029	-0.0513029	11	-0.0142508	0	0.0142508	0.000000000000000E+000	0.0142508	0.0000000E+000	0.000000000000000E+000	0.000798115
2	0	0	0	0	0	0	46.1484	-0.700002	-0.70048	-1.13969	-0.0524433	-0.0524433	11	-0.0145676	0	0.0145676	0.000000000000000E+000	0.0145676	0.0000000E+000	0.000000000000000E+000	0.000798331
2	0	0	0	0	0	0	47.1484	-0.700002	-0.700499	-1.13589	-0.0535814	-0.0535814	11	-0.0148837	0	0.0148837	0.000000000000000E+000	0.0148837	0.0000000E+000	0.000000000000000E+000	0.000795691
2	0	0	0	0	0	0	48.1484	-0.700002	-0.700537	-1.1324	-0.0547178	-0.0547178	11	-0.0151994	0	0.0151994	0.000000000000000E+000	0.0151994	0.0000000E+000	0.000000000000000E+000	0.000793288
2	0	0	0	0	0	0	49.1484	-0.700002	-0.700499	-1.09851	-0.0558317	-0.0558317	11	-0.0155088	0	0.0155088	0.000000000000000E+000	0.0155088	0.0000000E+000	0.000000000000000E+000	0.000769503
2	0	0	0	0	0	0	50.1484	-0.700002	-0.700499	-1.0777	-0.056918	-0.056918	11	-0.0158105	0	0.0158105	0.000000000000000E+000	0.0158105	0.0000000E+000	0.000000000000000E+000	0.000754929
2	0	0	0	0	0	0	51.1484	-0.700002	-0.700575	-1.06748	-0.0579905	-0.0579905	11	-0.0161085	0	0.0161085	0.000000000000000E+000	0.0161085	0.0000000E+000	0.000000000000000E+000	0.000747851
2	0	0	0	0	0	0	52.1484	-0.700002	-0.700442	-1.0628	-0.0590556	-0.0590556	11	-0.0164043	0	0.0164043	0.000000000000000E+000	0.0164043	0.0000000E+000	0.000000000000000E+000	0.00074443
2	0	0	0	0	0	0	53.1484	-0.700002	-0.700499	-1.05623	-0.0601149	-0.0601149	11	-0.0166986	0	0.0166986	0.000000000000000E+000	0.0166986	0.0000000E+000	0.000000000000000E+000	0.000739889
2	0	0	0	0	0	0	54.1484	-0.700002	-0.700499	-1.05446	-0.0611713	-0.0611713	11	-0.016992	0	0.016992	0.000000000000000E+000	0.016992	0.0000000E+000	0.000000000000000E+000	0.000738649
2	0	0	0	0	0	0	55.1484	-0.700002	-0.700556	-1.05324	-0.0622261	-0.0622261	11	-0.017285	0	0.017285	0.000000000000000E+000	0.017285	0.0000000E+000	0.000000000000000E+000	0.000737854
2	0	0	0	0	0	0	56.1484	-0.700002	-0.700365	-1.0513	-0.0632786	-0.0632786	11	-0.0175774	0	0.0175774	0.000000000000000E+000	0.0175774	0.0000000E+000	0.000000000000000E+000	0.000736295
2	0	0	0	0	0	0	57.1484	-0.700002	-0.700422	-1.05143	-0.0643296	-0.0643296	11	-0.0178693	0	0.0178693	0.000000000000000E+000	0.0178693	0.0000000E+000	0.000000000000000E+000	0.000736443
2	0	0	0	0	0	0	58.1484	-0.700002	-0.700384	-1.04964	-0.0653808	-0.0653808	11	-0.0181613	0	0.0181613	0.000000000000000E+000	0.0181613	0.0000000E+000	0.000000000000000E+000	0.000735151
2	0	0	0	0	0	0	59.1484	-0.700002	-0.700537	-1.04901	-0.0664301	-0.0664301	11	-0.0184528	0	0.0184528	0.000000000000000E+000	0.0184528	0.0000000E+000	0.000000000000000E+000	0.000734873
2	0	0	0	0	0	0	60.1484	-0.700002	-0.700556	-1.05272	-0.0674813	-0.0674813	11	-0.0187448	0	0.0187448	0.000000000000000E+000	0.0187448	0.0000000E+000	0.000000000000000E+000	0.000737489
2	0	0	0	0	0	0	61.1484	-0.700002	-0.700537	-1.05088	-0.0685323	-0.0685323	11	-0.0190368	0	0.0190368	0.000000000000000E+000	0.0190368	0.0000000E+000	0.000000000000000E+000	0.000736184
2	0	0	0	0	0	0	62.1484	-0.700002	-0.700575	-1.05148	-0.0695832	-0.0695832	11	-0.0193287	0	0.0193287	0.000000000000000E+000	0.0193287	0.0000000E+000	0.000000000000000E+000	0.000736639
2	0	0	0	0	0	0	63.1484	-0.700002	-0.700518	-1.05009	-0.0706333	-0.0706333	11	-0.0196204	0	0.0196204	0.000000000000000E+000	0.0196204	0.0000000E+000	0.000000000000000E+000	0.000735606
2	0	0	0	0	0	0	64.1484	-0.700002	-0.700442	-1.05103	-0.0716848	-0.0716848	11	-0.0199124	0	0.0199124	0.000000000000000E+000	0.0199124	0.0000000E+000	0.000000000000000E+000	0.000736182
2	0	0	0	0	0	0	65.1484	-0.700002	-0.700499	-1.05015	-0.072735	-0.072735	11	-0.0202042	0	0.0202042	0.000000000000000E+000	0.0202042	0.0000000E+000	0.000000000000000E+000	0.000735626
2	0	0	0	0	0	0	66.1484	-0.700002	-0.700575	-1.05065	-0.0737848	-0.0737848	11	-0.0204958	0	0.0204958	0.000000000000000E+000	0.0204958	0.0000000E+000	0.000000000000000E+000	0.000736061
2	0	0	0	0	0	0	67.1484	-0.700002	-0.700556	-1.04845	-0.0748344	-0.0748344	11	-0.0207873	0	0.0207873	0.000000000000000E+000	0.0207873	0.0000000E+000	0.000000000000000E+000	0.000734499
2	0	0	0	0	0	0	68.1484	-0.700002	-0.700652	-1.04962	-0.0758843	-0.0758843	11	-0.021079	0	0.021079	0.000000000000000E+000	0.021079	0.0000000E+000	0.000000000000000E+000	0.00073542
2	0	0	0	0	0	0	69.1484	-0.700002	-0.700537	-1.04866	-0.0769338	-0.0769338	11	-0.0213705	0	0.0213705	0.000000000000000E+000	0.0213705	0.0000000E+000	0.000000000000000E+000	0.000734628
2	0	0	0	0	0	0	70.1484	-0.700002	-0.700384	-1.04754	-0.0779816	-0.0779816	11	-0.0216616	0	0.0216616	0.000000000000000E+000	0.0216616	0.0000000E+000	0.000000000000000E+000	0.000733681
2	0	0	0	0	0	0	71.1484	-0.700002	-0.700442	-1.03166	-0.0790245	-0.0790245	11	-0.0219512	0	0.0219512	0.000000000000000E+000	0.0219512	0.0000000E+000	0.000000000000000E+000	0.000722615
2	0	0	0	0	0	0	72.1484	-0.700002	-0.70048	-0.99628	-0.0800345	-0.0800345	11	-0.0222318	0	0.0222318	0.000000000000000E+000	0.0222318	0.0000000E+000	0.000000000000000E+000	0.000697874
2	0	0	0	0	0	0	73.1484	-0.700002	-0.700442	-0.974332	-0.0810181	-0.0810181	11	-0.022505	0	0.022505	0.000000000000000E+000	0.022505	0.0000000E+000	0.000000000000000E+000	0.000682463
2	0	0	0	0	0	0	74.1484	-0.700002	-0.700384	-0.958999	-0.0819837	-0.0819837	11	-0.0227733	0	0.0227733	0.000000000000000E+000	0.0227733	0.0000000E+000	0.000000000000000E+000	0.000671668
2	0	0	0	0	0	0	75.1484	-0.700002	-0.700575	-0.949516	-0.0829366	-0.0829366	11	-0.0230379	0	0.0230379	0.000000000000000E+000	0.0230379	0.0000000E+000	0.000000000000000E+000	0.000665207
2	0	0	0	0	0	0	76.1484	-0.700002	-0.700556	-0.945479	-0.0838835	-0.0838835	11	-0.023301	0	0.023301	0.000000000000000E+000	0.023301	0.0000000E+000	0.000000000000000E+000	0.000662361
2	0	0	0	0	0	0	77.1484	-0.700002	-0.700461	-0.938147	-0.0848241	-0.0848241	11	-0.0235622	0	0.0235622	0.000000000000000E+000	0.0235622	0.0000000E+000	0.000000000000000E+000	0.000657135
2	0	0	0	0	0	0	78.1484	-0.700002	-0.700556	-0.933131	-0.0857598	-0.0857598	11	-0.0238222	0	0.0238222	0.000000000000000E+000	0.0238222	0.0000000E+000	0.000000000000000E+000	0.000653711
2	0	0	0	0	0	0	79.1484	-0.700002	-0.700461	-0.930254	-0.086692	-0.086692	11	-0.0240811	0	0.0240811	0.000000000000000E+000	0.0240811	0.0000000E+000	0.000000000000000E+000	0.000651607
2	0	0	0	0	0	0	80.1484	-0.700002	-0.700537	-0.933398	-0.0876239	-0.0876239	11	-0.02434	0	0.02434	0.000000000000000E+000	0.02434	0.0000000E+000	0.000000000000000E+000	0.00065388
2	0	0	0	0	0	0	81.1484	-0.700002	-0.700461	-0.93089	-0.0885558	-0.0885558	11	-0.0245988	0	0.0245988	0.000000000000000E+000	0.0245988	0.0000000E+000	0.000000000000000E+000	0.000652052
2	0	0	0	0	0	0	82.1484	-0.700002	-0.700499	-0.929301	-0.0894861	-0.0894861	11	-0.0248573	0	0.0248573	0.000000000000000E+000	0.0248573	0.0000000E+000	0.000000000000000E+000	0.000650974
2	0	0	0	0	0	0	83.1484	-0.700002	-0.700461	-0.929193	-0.0904154	-0.0904154	11	-0.0251154	0	0.0251154	0.000000000000000E+000	0.0251154	0.0000000E+000	0.000000000000000E+000	0.000650863
2	0	0	0	0	0	0	84.1484	-0.700002	-0.700403	-0.928503	-0.0913429	-0.0913429	11	-0.025373	0	0.025373	0.000000000000000E+000	0.025373	0.0000000E+000	0.000000000000000E+000	0.000650327
2	0	0	0	0	0	0	85.1484	-0.700002	-0.700442	-0.923804	-0.0922682	-0.0922682	11	-0.0256301	0	0.0256301	0.000000000000000E+000	0.0256301	0.0000000E+000	0.000000000000000E+000	0.000647071
2	0	0	0	0	0	0	86.1484	-0.700002	-0.700575	-0.925631	-0.0931944	-0.0931944	11	-0.0258873	0	0.0258873	0.000000000000000E+000	0.0258873	0.0000000E+000	0.000000000000000E+000	0.000648474
2	0	0	0	0	0	0	87.1484	-0.700002	-0.700365	-0.922052	-0.0941174	-0.0941174	11	-0.0261437	0	0.0261437	0.000000000000000E+000	0.0261437	0.0000000E+000	0.000000000000000E+000	0.000645773
2	0	0	0	0	0	0	88.1484	-0.700002	-0.70048	-0.924411	-0.0950406	-0.0950406	11	-0.0264002	0	0.0264002	0.000000000000000E+000	0.0264002	0.0000000E+000	0.000000000000000E+000	0.000647531
2	0	0	0	0	0	0	89.1484	-0.700002	-0.700442	-0.916207	-0.0959616	-0.0959616	11	-0.026656	0	0.026656	0.000000000000000E+000	0.026656	0.0000000E+000	0.000000000000000E+000	0.00064175
2	0	0	0	0	0	0	90.1484	-0.700002	-0.700442	-0.897372	-0.096867	-0.096867	11	-0.0269075	0	0.0269075	0.000000000000000E+000	0.0269075	0.0000000E+000	0.000000000000000E+000	0.000628556
2	0	0	0	0	0	0	91.1484	-0.700002	-0.700346	-0.888739	-0.0977598	-0.0977598	11	-0.0271555	0	0.0271555	0.000000000000000E+000	0.0271555	0.0000000E+000	0.000000000000000E+000	0.000622425
2	0	0	0	0	0	0	92.1484	-0.700002	-0.700499	-0.882734	-0.0986447	-0.0986447	11	-0.0274013	0	0.0274013	0.000000000000000E+000	0.0274013	0.0000000E+000	0.000000000000000E+000	0.000618354
2	0	0	0	0	0	0	93.1484	-0.700002	-0.700499	-0.874627	-0.099523	-0.099523	11	-0.0276453	0	0.0276453	0.000000000000000E+000	0.0276453	0.0000000E+000	0.000000000000000E+000	0.000612675
2	0	0	0	0	0	0	94.1484	-0.700002	-0.700403	-0.869574	-0.100395	-0.100395	11	-0.0278876	0	0.0278876	0.000000000000000E+000	0.0278876	0.0000000E+000	0.000000000000000E+000	0.000609053
2	0	0	0	0	0	0	95.1484	-0.700002	-0.700442	-0.867411	-0.101263	-0.101263	11	-0.0281286	0	0.0281286	0.000000000000000E+000	0.0281286	0.0000000E+000	0.000000000000000E+000	0.000607571
2	0	0	0	0	0	0	96.1484	-0.700002	-0.700499	-0.863803	-0.102129	-0.102129	11	-0.0283692	0	0.0283692	0.000000000000000E+000	0.0283692	0.0000000E+000	0.000000000000000E+000	0.000605093
2	0	0	0	0	0	0	97.1484	-0.700002	-0.700461	-0.863098	-0.102993	-0.102993	11	-0.0286091	0	0.0286091	0.000000000000000E+000	0.0286091	0.0000000E+000	0.000000000000000E+000	0.000604566
2	0	0	0	0	0	0	98.1484	-0.700002	-0.700422	-0.863342	-0.103856	-0.103856	11	-0.028849	0	0.028849	0.000000000000000E+000	0.028849	0.0000000E+000	0.000000000000000E+000	0.000604704
2	0	0	0	0	0	0	99.1484	-0.700002	-0.700403	-0.858973	-0.104718	-0.104718	11	-0.0290885	0	0.0290885	0.000000000000000E+000	0.0290885	0.0000000E+000	0.000000000000000E+000	0.000601627
2	0	0	0	0	0	0	100.148	-0.700002	-0.700537	-0.862719	-0.10558	-0.10558	11	-0.0293277	0	0.0293277	0.000000000000000E+000	0.0293277	0.0000000E+000	0.000000000000000E+000	0.000604367
2	0	0	0	0	0	0	101.148	-0.700002	-0.700499	-0.858996	-0.106441	-0.106441	11	-0.029567	0	0.029567	0.000000000000000E+000	0.029567	0.0000000E+000	0.000000000000000E+000	0.000601726
2	0	0	0	0	0	0	102.148	-0.700002	-0.700499	-0.858945	-0.1073	-0.1073	11	-0.0298056	0	0.0298056	0.000000000000000E+000	0.0298056	0.0000000E+000	0.000000000000000E+000	0.00060169
2	0	0	0	0	0	0	103.148	-0.700002	-0.700461	-0.860594	-0.10816	-0.10816	11	-0.0300444	0	0.0300444	0.000000000000000E+000	0.0300444	0.0000000E+000	0.000000000000000E+000	0.000602812
2	0	0	0	0	0	0	104.148	-0.700002	-0.700422	-0.857589	-0.109019	-0.109019	11	-0.0302831	0	0.0302831	0.000000000000000E+000	0.0302831	0.0000000E+000	0.000000000000000E+000	0.000600675
2	0	0	0	0	0	0	105.148	-0.700002	-0.700365	-0.858878	-0.109878	-0.109878	11	-0.0305217	0	0.0305217	0.000000000000000E+000	0.0305217	0.0000000E+000	0.000000000000000E+000	0.000601528
2	0	0	0	0	0	0	106.148	-0.700002	-0.700442	-0.85187	-0.110735	-0.110735	11	-0.0307599	0	0.0307599	0.000000000000000E+000	0.0307599	0.0000000E+000	0.000000000000000E+000	0.000596685
2	0	0	0	0	0	0	107.148	-0.700002	-0.70048	-0.834481	-0.111577	-0.111577	11	-0.0309937	0	0.0309937	0.000000000000000E+000	0.0309937	0.0000000E+000	0.000000000000000E+000	0.000584537
2	0	0	0	0	0	0	108.148	-0.700002	-0.700461	-0.823859	-0.112407	-0.112407	11	-0.0312242	0	0.0312242	0.000000000000000E+000	0.0312242	0.0000000E+000	0.000000000000000E+000	0.000577081
2	0	0	0	0	0	0	109.148	-0.700002	-0.700575	-0.819727	-0.113229	-0.113229	11	-0.0314525	0	0.0314525	0.000000000000000E+000	0.0314525	0.0000000E+000	0.000000000000000E+000	0.000574281
2	0	0	0	0	0	0	110.148	-0.700002	-0.700346	-0.814245	-0.114045	-0.114045	11	-0.0316792	0	0.0316792	0.000000000000000E+000	0.0316792	0.0000000E+000	0.000000000000000E+000	0.000570253
2	0	0	0	0	0	0	111.148	-0.700002	-0.700518	-0.808786	-0.114857	-0.114857	11	-0.0319046	0	0.0319046	0.000000000000000E+000	0.0319046	0.0000000E+000	0.000000000000000E+000	0.000566569
2	0	0	0	0	0	0	112.148	-0.700002	-0.70048	-0.805766	-0.115662	-0.115662	11	-0.0321283	0	0.0321283	0.000000000000000E+000	0.0321283	0.0000000E+000	0.000000000000000E+000	0.000564423
2	0	0	0	0	0	0	113.148	-0.700002	-0.700613	-0.803886	-0.116466	-0.116466	11	-0.0323516	0	0.0323516	0.000000000000000E+000	0.0323516	0.0000000E+000	0.000000000000000E+000	0.000563213
2	0	0	0	0	0	0	114.148	-0.700002	-0.700461	-0.801469	-0.117269	-0.117269	11	-0.0325746	0	0.0325746	0.000000000000000E+000	0.0325746	0.0000000E+000	0.000000000000000E+000	0.000561397
2	0	0	0	0	0	0	115.148	-0.700002	-0.700518	-0.799542	-0.11807	-0.11807	11	-0.0327973	0	0.0327973	0.000000000000000E+000	0.0327973	0.0000000E+000	0.000000000000000E+000	0.000560093
2	0	0	0	0	0	0	116.148	-0.700002	-0.700442	-0.799031	-0.11887	-0.11887	11	-0.0330193	0	0.0330193	0.000000000000000E+000	0.0330193	0.0000000E+000	0.000000000000000E+000	0.000559675
2	0	0	0	0	0	0	117.148	-0.700002	-0.700556	-0.798437	-0.119667	-0.119667	11	-0.0332407	0	0.0332407	0.000000000000000E+000	0.0332407	0.0000000E+000	0.000000000000000E+000	0.00055935
2	0	0	0	0	0	0	118.148	-0.700002	-0.700518	-0.798192	-0.120465	-0.120465	11	-0.0334625	0	0.0334625	0.000000000000000E+000	0.0334625	0.0000000E+000	0.000000000000000E+000	0.000559148
2	0	0	0	0	0	0	119.148	-0.700002	-0.700442	-0.800985	-0.121265	-0.121265	11	-0.0336847	0	0.0336847	0.000000000000000E+000	0.0336847	0.0000000E+000	0.000000000000000E+000	0.000561043
2	0	0	0	0	0	0	120.148	-0.700002	-0.700461	-0.799214	-0.122064	-0.122064	11	-0.0339068	0	0.0339068	0.000000000000000E+000	0.0339068	0.0000000E+000	0.000000000000000E+000	0.000559818
2	0	0	0	0	0	0	121.148	-0.700002	-0.700537	-0.798396	-0.122864	-0.122864	11	-0.0341289	0	0.0341289	0.000000000000000E+000	0.0341289	0.0000000E+000	0.000000000000000E+000	0.000559306
2	0	0	0	0	0	0	122.148	-0.700002	-0.70048	-0.798217	-0.123662	-0.123662	11	-0.0343507	0	0.0343507	0.000000000000000E+000	0.0343507	0.0000000E+000	0.000000000000000E+000	0.000559135
2	0	0	0	0	0	0	123.148	-0.700002	-0.700422	-0.797561	-0.12446	-0.12446	11	-0.0345723	0	0.0345723	0.000000000000000E+000	0.0345723	0.0000000E+000	0.000000000000000E+000	0.00055863
2	0	0	0	0	0	0	124.148	-0.700002	-0.700499	-0.797097	-0.125258	-0.125258	11	-0.0347939	0	0.0347939	0.000000000000000E+000	0.0347939	0.0000000E+000	0.000000000000000E+000	0.000558365
2	0	0	0	0	0	0	125.148	-0.700002	-0.700499	-0.794071	-0.126054	-0.126054	11	-0.035015	0	0.035015	0.000000000000000E+000	0.035015	0.0000000E+000	0.000000000000000E+000	0.000556246
2	0	0	0	0	0	0	126.148	-0.700002	-0.700499	-0.786159	-0.126844	-0.126844	11	-0.0352343	0	0.0352343	0.000000000000000E+000	0.0352343	0.0000000E+000	0.000000000000000E+000	0.000550703
2	0	0	0	0	0	0	127.148	-0.700002	-0.700499	-0.77604	-0.127624	-0.127624	11	-0.0354512	0	0.0354512	0.000000000000000E+000	0.0354512	0.0000000E+000	0.000000000000000E+000	0.000543615
2	0	0	0	0	0	0	128.148	-0.700002	-0.700422	-0.769326	-0.128397	-0.128397	11	-0.0356659	0	0.0356659	0.000000000000000E+000	0.0356659	0.0000000E+000	0.000000000000000E+000	0.000538853
2	0	0	0	0	0	0	129.148	-0.700002	-0.700461	-0.762037	-0.129163	-0.129163	11	-0.0358786	0	0.0358786	0.000000000000000E+000	0.0358786	0.0000000E+000	0.000000000000000E+000	0.000533777
2	0	0	0	0	0	0	130.148	-0.700002	-0.700537	-0.756653	-0.129923	-0.129923	11	-0.0360896	0	0.0360896	0.000000000000000E+000	0.0360896	0.0000000E+000	0.000000000000000E+000	0.000530063
2	0	0	0	0	0	0	131.148	-0.700002	-0.700365	-0.756914	-0.130681	-0.130681	11	-0.0363004	0	0.0363004	0.000000000000000E+000	0.0363004	0.0000000E+000	0.000000000000000E+000	0.000530116
2	0	0	0	0	0	0	132.148	-0.700002	-0.700461	-0.755231	-0.131438	-0.131438	11	-0.0365105	0	0.0365105	0.000000000000000E+000	0.0365105	0.0000000E+000	0.000000000000000E+000	0.000529009
2	0	0	0	0	0	0	133.148	-0.700002	-0.700499	-0.756911	-0.132194	-0.132194	11	-0.0367205	0	0.0367205	0.000000000000000E+000	0.0367205	0.0000000E+000	0.000000000000000E+000	0.000530215
2	0	0	0	0	0	0	134.148	-0.700002	-0.700422	-0.756722	-0.13295	-0.13295	11	-0.0369305	0	0.0369305	0.000000000000000E+000	0.0369305	0.0000000E+000	0.000000000000000E+000	0.000530025
2	0	0	0	0	0	0	135.148	-0.700002	-0.70048	-0.753167	-0.133704	-0.133704	11	-0.03714	0	0.03714	0.000000000000000E+000	0.03714	0.0000000E+000	0.000000000000000E+000	0.000527578
2	0	0	0	0	0	0	136.148	-0.700002	-0.700556	-0.751671	-0.134457	-0.134457	11	-0.0373492	0	0.0373492	0.000000000000000E+000	0.0373492	0.0000000E+000	0.000000000000000E+000	0.000526588
2	0	0	0	0	0	0	137.148	-0.700002	-0.70048	-0.75208	-0.135209	-0.135209	11	-0.0375581	0	0.0375581	0.000000000000000E+000	0.0375581	0.0000000E+000	0.000000000000000E+000	0.000526817
2	0	0	0	0	0	0	138.148	-0.700002	-0.700556	-0.751106	-0.135961	-0.135961	11	-0.037767	0	0.037767	0.000000000000000E+000	0.037767	0.0000000E+000	0.000000000000000E+000	0.000526192
2	0	0	0	0	0	0	139.148	-0.700002	-0.700422	-0.749167	-0.136711	-0.136711	11	-0.0379752	0	0.0379752	0.000000000000000E+000	0.0379752	0.0000000E+000	0.000000000000000E+000	0.000524733
2	0	0	0	0	0	0	140.148	-0.700002	-0.700575	-0.746729	-0.137459	-0.137459	11	-0.0381831	0	0.0381831	0.000000000000000E+000	0.0381831	0.0000000E+000	0.000000000000000E+000	0.00052314
2	0	0	0	0	0	0	141.148	-0.700002	-0.700518	-0.747331	-0.138206	-0.138206	11	-0.0383906	0	0.0383906	0.000000000000000E+000	0.0383906	0.0000000E+000	0.000000000000000E+000	0.000523519
2	0	0	0	0	0	0	142.148	-0.700002	-0.700518	-0.748644	-0.138952	-0.138952	11	-0.0385979	0	0.0385979	0.000000000000000E+000	0.0385979	0.0000000E+000	0.000000000000000E+000	0.000524438
2	0	0	0	0	0	0	143.148	-0.700002	-0.700537	-0.744182	-0.139699	-0.139699	11	-0.0388052	0	0.0388052	0.000000000000000E+000	0.0388052	0.0000000E+000	0.000000000000000E+000	0.000521327
2	0	0	0	0	0	0	144.148	-0.700002	-0.700594	-0.747699	-0.140445	-0.140445	11	-0.0390126	0	0.0390126	0.000000000000000E+000	0.0390126	0.0000000E+000	0.000000000000000E+000	0.000523834
2	0	0	0	0	0	0	145.148	-0.700002	-0.700461	-0.747441	-0.141192	-0.141192	11	-0.03922	0	0.03922	0.000000000000000E+000	0.03922	0.0000000E+000	0.000000000000000E+000	0.000523553
2	0	0	0	0	0	0	146.148	-0.700002	-0.700518	-0.757168	-0.141945	-0.141945	11	-0.0394291	0	0.0394291	0.000000000000000E+000	0.0394291	0.0000000E+000	0.000000000000000E+000	0.00053041
2	0	0	0	0	0	0	147.148	-0.700002	-0.700403	-0.764648	-0.142706	-0.142706	11	-0.0396407	0	0.0396407	0.000000000000000E+000	0.0396407	0.0000000E+000	0.000000000000000E+000	0.000535562
2	0	0	0	0	0	0	148.148	-0.700002	-0.700403	-0.772696	-0.143476	-0.143476	11	-0.0398544	0	0.0398544	0.000000000000000E+000	0.0398544	0.0000000E+000	0.000000000000000E+000	0.000541199
2	0	0	0	0	0	0	149.148	-0.700002	-0.700461	-0.776713	-0.144251	-0.144251	11	-0.0400696	0	0.0400696	0.000000000000000E+000	0.0400696	0.0000000E+000	0.000000000000000E+000	0.000544057
2	0	0	0	0	0	0	150.148	-0.700002	-0.700575	-0.781181	-0.14503	-0.14503	11	-0.0402861	0	0.0402861	0.000000000000000E+000	0.0402861	0.0000000E+000	0.000000000000000E+000	0.000547276
2	0	0	0	0	0	0	151.148	-0.700002	-0.700403	-0.781024	-0.145811	-0.145811	11	-0.0405031	0	0.0405031	0.000000000000000E+000	0.0405031	0.0000000E+000	0.000000000000000E+000	0.000547032
2	0	0	0	0	0	0	152.148	-0.700002	-0.700384	-0.780147	-0.146592	-0.146592	11	-0.04072	0	0.04072	0.000000000000000E+000	0.04072	0.0000000E+000	0.000000000000000E+000	0.000546402
2	0	0	0	0	0	0	153.148	-0.700002	-0.700537	-0.782133	-0.147374	-0.147374	11	-0.0409371	0	0.0409371	0.000000000000000E+000	0.0409371	0.0000000E+000	0.000000000000000E+000	0.000547913
2	0	0	0	0	0	0	154.148	-0.700002	-0.700518	-0.781809	-0.148157	-0.148157	11	-0.0411547	0	0.0411547	0.000000000000000E+000	0.0411547	0.0000000E+000	0.000000000000000E+000	0.000547672
2	0	0	0	0	0	0	155.148	-0.700002	-0.700461	-0.78516	-0.148942	-0.148942	11	-0.0413727	0	0.0413727	0.000000000000000E+000	0.0413727	0.0000000E+000	0.000000000000000E+000	0.000549973
2	0	0	0	0	0	0	156.148	-0.700002	-0.70048	-0.783668	-0.149725	-0.149725	11	-0.0415903	0	0.0415903	0.000000000000000E+000	0.0415903	0.0000000E+000	0.000000000000000E+000	0.000548944
2	0	0	0	0	0	0	157.148	-0.700002	-0.70048	-0.78511	-0.15051	-0.15051	11	-0.0418084	0	0.0418084	0.000000000000000E+000	0.0418084	0.0000000E+000	0.000000000000000E+000	0.000549954
2	0	0	0	0	0	0	158.148	-0.700002	-0.700422	-0.784979	-0.151297	-0.151297	11	-0.0420269	0	0.0420269	0.000000000000000E+000	0.0420269	0.0000000E+000	0.000000000000000E+000	0.000549817
2	0	0	0	0	0	0	159.148	-0.700002	-0.700537	-0.783412	-0.152082	-0.152082	11	-0.0422449	0	0.0422449	0.000000000000000E+000	0.0422449	0.0000000E+000	0.000000000000000E+000	0.000548809
2	0	0	0	0	0	0	160.148	-0.700002	-0.700499	-0.783838	-0.152865	-0.152865	11	-0.0424624	0	0.0424624	0.000000000000000E+000	0.0424624	0.0000000E+000	0.000000000000000E+000	0.000549078
2	0	0	0	0	0	0	161.148	-0.700002	-0.700403	-0.783606	-0.153649	-0.153649	11	-0.0426804	0	0.0426804	0.000000000000000E+000	0.0426804	0.0000000E+000	0.000000000000000E+000	0.00054884
2	0	0	0	0	0	0	162.148	-0.700002	-0.700499	-0.7845	-0.154433	-0.154433	11	-0.0428982	0	0.0428982	0.000000000000000E+000	0.0428982	0.0000000E+000	0.000000000000000E+000	0.000549541
2	0	0	0	0	0	0	163.148	-0.700002	-0.700518	-0.784834	-0.155217	-0.155217	11	-0.0431158	0	0.0431158	0.000000000000000E+000	0.0431158	0.0000000E+000	0.000000000000000E+000	0.00054979
2	0	0	0	0	0	0	164.148	-0.700002	-0.700461	-0.783492	-0.156	-0.156	11	-0.0433334	0	0.0433334	0.000000000000000E+000	0.0433334	0.0000000E+000	0.000000000000000E+000	0.000548805
2	0	0	0	0	0	0	165.148	-0.700002	-0.70048	-0.780665	-0.156781	-0.156781	11	-0.0435504	0	0.0435504	0.000000000000000E+000	0.0435504	0.0000000E+000	0.000000000000000E+000	0.00054684
2	0	0	0	0	0	0	166.148	-0.700002	-0.700613	-0.80215	-0.157571	-0.157571	11	-0.0437697	0	0.0437697	0.000000000000000E+000	0.0437697	0.0000000E+000	0.000000000000000E+000	0.000561997
2	0	0	0	0	0	0	167.148	-0.700002	-0.700556	-0.814489	-0.158381	-0.158381	11	-0.0439946	0	0.0439946	0.000000000000000E+000	0.0439946	0.0000000E+000	0.000000000000000E+000	0.000570596
2	0	0	0	0	0	0	168.148	-0.700002	-0.700518	-0.823961	-0.159202	-0.159202	11	-0.0442227	0	0.0442227	0.000000000000000E+000	0.0442227	0.0000000E+000	0.000000000000000E+000	0.000577199
2	0	0	0	0	0	0	169.148	-0.700002	-0.70048	-0.831976	-0.160029	-0.160029	11	-0.0444524	0	0.0444524	0.000000000000000E+000	0.0444524	0.0000000E+000	0.000000000000000E+000	0.000582783
2	0	0	0	0	0	0	170.148	-0.700002	-0.700575	-0.833767	-0.16086	-0.16086	11	-0.0446833	0	0.0446833	0.000000000000000E+000	0.0446833	0.0000000E+000	0.000000000000000E+000	0.000584116
2	0	0	0	0	0	0	171.148	-0.700002	-0.700537	-0.832437	-0.161694	-0.161694	11	-0.044915	0	0.044915	0.000000000000000E+000	0.044915	0.0000000E+000	0.000000000000000E+000	0.000583153
2	0	0	0	0	0	0	172.148	-0.700002	-0.700327	-0.83423	-0.162528	-0.162528	11	-0.0451467	0	0.0451467	0.000000000000000E+000	0.0451467	0.0000000E+000	0.000000000000000E+000	0.000584234
2	0	0	0	0	0	0	173.148	-0.700002	-0.70048	-0.838955	-0.163366	-0.163366	11	-0.0453793	0	0.0453793	0.000000000000000E+000	0.0453793	0.0000000E+000	0.000000000000000E+000	0.000587671
2	0	0	0	0	0	0	174.148	-0.700002	-0.70048	-0.836959	-0.164204	-0.164204	11	-0.0456122	0	0.0456122	0.000000000000000E+000	0.0456122	0.0000000E+000	0.000000000000000E+000	0.000586273
2	0	0	0	0	0	0	175.148	-0.700002	-0.700499	-0.840029	-0.165043	-0.165043	11	-0.0458452	0	0.0458452	0.000000000000000E+000	0.0458452	0.0000000E+000	0.000000000000000E+000	0.000588439
2	0	0	0	0	0	0	176.148	-0.700002	-0.700556	-0.83794	-0.165882	-0.165882	11	-0.0460783	0	0.0460783	0.000000000000000E+000	0.0460783	0.0000000E+000	0.000000000000000E+000	0.000587024
2	0	0	0	0	0	0	177.148	-0.700002	-0.700594	-0.84148	-0.166722	-0.166722	11	-0.0463117	0	0.0463117	0.000000000000000E+000	0.0463117	0.0000000E+000	0.000000000000000E+000	0.000589536
2	0	0	0	0	0	0	178.148	-0.700002	-0.700365	-0.844388	-0.167564	-0.167564	11	-0.0465455	0	0.0465455	0.000000000000000E+000	0.0465455	0.0000000E+000	0.000000000000000E+000	0.00059138
2	0	0	0	0	0	0	179.148	-0.700002	-0.700403	-0.843042	-0.168407	-0.168407	11	-0.0467796	0	0.0467796	0.000000000000000E+000	0.0467796	0.0000000E+000	0.000000000000000E+000	0.00059047
2	0	0	0	0	0	0	180.148	-0.700002	-0.700537	-0.844051	-0.169251	-0.169251	11	-0.0470142	0	0.0470142	0.000000000000000E+000	0.0470142	0.0000000E+000	0.000000000000000E+000	0.000591289
2	0	0	0	0	0	0	181.148	-0.700002	-0.700403	-0.843309	-0.170093	-0.170093	11	-0.0472481	0	0.0472481	0.000000000000000E+000	0.0472481	0.0000000E+000	0.000000000000000E+000	0.000590657
2	0	0	0	0	0	0	182.148	-0.700002	-0.700461	-0.841665	-0.170936	-0.170936	11	-0.0474821	0	0.0474821	0.000000000000000E+000	0.0474821	0.0000000E+000	0.000000000000000E+000	0.000589553
2	0	0	0	0	0	0	183.148	-0.700002	-0.700632	-0.843971	-0.17178	-0.17178	11	-0.0477165	0	0.0477165	0.000000000000000E+000	0.0477165	0.0000000E+000	0.000000000000000E+000	0.000591313
2	0	0	0	0	0	0	184.148	-0.700002	-0.700461	-0.84183	-0.172622	-0.172622	11	-0.0479507	0	0.0479507	0.000000000000000E+000	0.0479507	0.0000000E+000	0.000000000000000E+000	0.000589669
2	0	0	0	0	0	0	185.148	-0.700002	-0.700613	-0.84447	-0.173466	-0.173466	11	-0.048185	0	0.048185	0.000000000000000E+000	0.048185	0.0000000E+000	0.000000000000000E+000	0.000591647
2	0	0	0	0	0	0	186.148	-0.700002	-0.700518	-0.862388	-0.174318	-0.174318	11	-0.0484217	0	0.0484217	0.000000000000000E+000	0.0484217	0.0000000E+000	0.000000000000000E+000	0.000604118
2	0	0	0	0	0	0	187.148	-0.700002	-0.700461	-0.877075	-0.175188	-0.175188	11	-0.0486634	0	0.0486634	0.000000000000000E+000	0.0486634	0.0000000E+000	0.000000000000000E+000	0.000614357
2	0	0	0	0	0	0	188.148	-0.700002	-0.700632	-0.886861	-0.176071	-0.176071	11	-0.0489087	0	0.0489087	0.000000000000000E+000	0.0489087	0.0000000E+000	0.000000000000000E+000	0.000621364
2	0	0	0	0	0	0	189.148	-0.700002	-0.700499	-0.892137	-0.17696	-0.17696	11	-0.0491556	0	0.0491556	0.000000000000000E+000	0.0491556	0.0000000E+000	0.000000000000000E+000	0.000624941
2	0	0	0	0	0	0	190.148	-0.700002	-0.70048	-0.897115	-0.177855	-0.177855	11	-0.0494042	0	0.0494042	0.000000000000000E+000	0.0494042	0.0000000E+000	0.000000000000000E+000	0.000628411
2	0	0	0	0	0	0	191.148	-0.700002	-0.70048	-0.89901	-0.178753	-0.178753	11	-0.0496536	0	0.0496536	0.000000000000000E+000	0.0496536	0.0000000E+000	0.000000000000000E+000	0.000629738
2	0	0	0	0	0	0	192.148	-0.700002	-0.700422	-0.898434	-0.179652	-0.179652	11	-0.0499033	0	0.0499033	0.000000000000000E+000	0.0499033	0.0000000E+000	0.000000000000000E+000	0.000629283
2	0	0	0	0	0	0	193.148	-0.700002	-0.700442	-0.896771	-0.180549	-0.180549	11	-0.0501526	0	0.0501526	0.000000000000000E+000	0.0501526	0.0000000E+000	0.000000000000000E+000	0.000628136
2	0	0	0	0	0	0	194.148	-0.700002	-0.700556	-0.899687	-0.181448	-0.181448	11	-0.0504021	0	0.0504021	0.000000000000000E+000	0.0504021	0.0000000E+000	0.000000000000000E+000	0.000630281
2	0	0	0	0	0	0	195.148	-0.700002	-0.700461	-0.89719	-0.182346	-0.182346	11	-0.0506518	0	0.0506518	0.000000000000000E+000	0.0506518	0.0000000E+000	0.000000000000000E+000	0.000628446
2	0	0	0	0	0	0	196.148	-0.700002	-0.70048	-0.900313	-0.183245	-0.183245	11	-0.0509013	0	0.0509013	0.000000000000000E+000	0.0509013	0.0000000E+000	0.000000000000000E+000	0.000630651
2	0	0	0	0	0	0	197.148	-0.700002	-0.70048	-0.898399	-0.184144	-0.184144	11	-0.051151	0	0.051151	0.000000000000000E+000	0.051151	0.0000000E+000	0.000000000000000E+000	0.000629311
2	0	0	0	0	0	0	198.148	-0.700002	-0.700537	-0.896997	-0.185041	-0.185041	11	-0.0514003	0	0.0514003	0.000000000000000E+000	0.0514003	0.0000000E+000	0.000000000000000E+000	0.000628379
2	0	0	0	0	0	0	199.148	-0.700002	-0.700499	-0.89672	-0.185938	-0.185938	11	-0.0516495	0	0.0516495	0.000000000000000E+000	0.0516495	0.0000000E+000	0.000000000000000E+000	0.000628151
2	0	0	0	0	0	0	200.148	-0.700002	-0.700575	-0.897537	-0.186835	-0.186835	11	-0.0518986	0	0.0518986	0.000000000000000E+000	0.0518986	0.0000000E+000	0.000000000000000E+000	0.000628792
2	0	0	0	0	0	0	201.148	-0.700002	-0.700442	-0.8995	-0.187734	-0.187734	11	-0.0521482	0	0.0521482	0.000000000000000E+000	0.0521482	0.0000000E+000	0.000000000000000E+000	0.000630047
2	0	0	0	0	0	0	202.148	-0.700002	-0.700556	-0.921545	-0.188641	-0.188641	11	-0.0524004	0	0.0524004	0.000000000000000E+000	0.0524004	0.0000000E+000	0.000000000000000E+000	0.000645594
2	0	0	0	0	0	0	203.148	-0.700002	-0.700556	-0.962668	-0.189587	-0.189587	11	-0.0526631	0	0.0526631	0.000000000000000E+000	0.0526631	0.0000000E+000	0.000000000000000E+000	0.000674403
2	0	0	0	0	0	0	204.148	-0.700002	-0.700422	-0.984649	-0.190563	-0.190563	11	-0.0529342	0	0.0529342	0.000000000000000E+000	0.0529342	0.0000000E+000	0.000000000000000E+000	0.00068967
2	0	0	0	0	0	0	205.148	-0.700002	-0.700613	-0.996955	-0.191555	-0.191555	11	-0.0532098	0	0.0532098	0.000000000000000E+000	0.0532098	0.0000000E+000	0.000000000000000E+000	0.00069848
2	0	0	0	0	0	0	206.148	-0.700002	-0.700537	-1.00436	-0.192556	-0.192556	11	-0.0534878	0	0.0534878	0.000000000000000E+000	0.0534878	0.0000000E+000	0.000000000000000E+000	0.000703594
2	0	0	0	0	0	0	207.148	-0.700002	-0.700365	-1.00768	-0.193563	-0.193563	11	-0.0537674	0	0.0537674	0.000000000000000E+000	0.0537674	0.0000000E+000	0.000000000000000E+000	0.000705742
2	0	0	0	0	0	0	208.148	-0.700002	-0.70048	-1.00894	-0.194571	-0.194571	11	-0.0540474	0	0.0540474	0.000000000000000E+000	0.0540474	0.0000000E+000	0.000000000000000E+000	0.000706741
2	0	0	0	0	0	0	209.148	-0.700002	-0.700518	-1.00899	-0.19558	-0.19558	11	-0.0543277	0	0.0543277	0.000000000000000E+000	0.0543277	0.0000000E+000	0.000000000000000E+000	0.000706816
2	0	0	0	0	0	0	210.148	-0.700002	-0.700403	-1.01052	-0.196589	-0.196589	11	-0.0546081	0	0.0546081	0.000000000000000E+000	0.0546081	0.0000000E+000	0.000000000000000E+000	0.000707774
2	0	0	0	0	0	0	211.148	-0.700002	-0.700537	-1.0108	-0.1976	-0.1976	11	-0.0548889	0	0.0548889	0.000000000000000E+000	0.0548889	0.0000000E+000	0.000000000000000E+000	0.000708103
2	0	0	0	0	0	0	212.148	-0.700002	-0.700499	-1.01151	-0.198612	-0.198612	11	-0.05517	0	0.05517	0.000000000000000E+000	0.05517	0.0000000E+000	0.000000000000000E+000	0.000708564
2	0	0	0	0	0	0	213.148	-0.700002	-0.700365	-1.01319	-0.199626	-0.199626	11	-0.0554515	0	0.0554515	0.000000000000000E+000	0.0554515	0.0000000E+000	0.000000000000000E+000	0.000709602
2	0	0	0	0	0	0	214.148	-0.700002	-0.700422	-1.01315	-0.200639	-0.200639	11	-0.0557329	0	0.0557329	0.000000000000000E+000	0.0557329	0.0000000E+000	0.000000000000000E+000	0.000709635
2	0	0	0	0	0	0	215.148	-0.700002	-0.700461	-1.01273	-0.201651	-0.201651	11	-0.0560141	0	0.0560141	0.000000000000000E+000	0.0560141	0.0000000E+000	0.000000000000000E+000	0.000709379
2	0	0	0	0	0	0	216.148	-0.700002	-0.700403	-1.0148	-0.202665	-0.202665	11	-0.0562957	0	0.0562957	0.000000000000000E+000	0.0562957	0.0000000E+000	0.000000000000000E+000	0.000710767
2	0	0	0	0	0	0	217.148	-0.700002	-0.700403	-1.01468	-0.203679	-0.203679	11	-0.0565774	0	0.0565774	0.000000000000000E+000	0.0565774	0.0000000E+000	0.000000000000000E+000	0.000710686
2	0	0	0	0	0	0	218.148	-0.700002	-0.700403	-1.01472	-0.204693	-0.204693	11	-0.0568592	0	0.0568592	0.000000000000000E+000	0.0568592	0.0000000E+000	0.000000000000000E+000	0.000710717
2	0	0	0	0	0	0	219.148	-0.700002	-0.700499	-1.0145	-0.205707	-0.205707	11	-0.057141	0	0.057141	0.000000000000000E+000	0.057141	0.0000000E+000	0.000000000000000E+000	0.000710656
2	0	0	0	0	0	0	220.148	-0.700002	-0.700499	-1.01411	-0.206721	-0.206721	11	-0.0574224	0	0.0574224	0.000000000000000E+000	0.0574224	0.0000000E+000	0.000000000000000E+000	0.00071038
2	0	0	0	0	0	0	221.148	-0.700002	-0.700632	-1.01355	-0.207734	-0.207734	11	-0.0577039	0	0.0577039	0.000000000000000E+000	0.0577039	0.0000000E+000	0.000000000000000E+000	0.000710128
2	0	0	0	0	0	0	222.148	-0.700002	-0.700442	-1.01363	-0.208748	-0.208748	11	-0.0579857	0	0.0579857	0.000000000000000E+000	0.0579857	0.0000000E+000	0.000000000000000E+000	0.000709986
2	0	0	0	0	0	0	223.148	-0.700002	-0.700518	-1.01338	-0.209761	-0.209761	11	-0.058267	0	0.058267	0.000000000000000E+000	0.058267	0.0000000E+000	0.000000000000000E+000	0.000709894
2	0	0	0	0	0	0	224.148	-0.700002	-0.700518	-1.01378	-0.210775	-0.210775	11	-0.0585485	0	0.0585485	0.000000000000000E+000	0.0585485	0.0000000E+000	0.000000000000000E+000	0.000710172
2	0	0	0	0	0	0	225.148	-0.700002	-0.700499	-1.0139	-0.21179	-0.21179	11	-0.0588304	0	0.0588304	0.000000000000000E+000	0.0588304	0.0000000E+000	0.000000000000000E+000	0.000710237
2	0	0	0	0	0	0	226.148	-0.700002	-0.700384	-1.01451	-0.212804	-0.212804	11	-0.0591123	0	0.0591123	0.000000000000000E+000	0.0591123	0.0000000E+000	0.000000000000000E+000	0.000710546
2	0	0	0	0	0	0	227.148	-0.700002	-0.700384	-1.04101	-0.213827	-0.213827	11	-0.0593964	0	0.0593964	0.000000000000000E+000	0.0593964	0.0000000E+000	0.000000000000000E+000	0.000729108
2	0	0	0	0	0	0	228.148	-0.700002	-0.700518	-1.06513	-0.214884	-0.214884	11	-0.0596901	0	0.0596901	0.000000000000000E+000	0.0596901	0.0000000E+000	0.000000000000000E+000	0.00074614
2	0	0	0	0	0	0	229.148	-0.700002	-0.700461	-1.07679	-0.215958	-0.215958	11	-0.0599882	0	0.0599882	0.000000000000000E+000	0.0599882	0.0000000E+000	0.000000000000000E+000	0.000754252
2	0	0	0	0	0	0	230.148	-0.700002	-0.700556	-1.08213	-0.217038	-0.217038	11	-0.0602885	0	0.0602885	0.000000000000000E+000	0.0602885	0.0000000E+000	0.000000000000000E+000	0.000758094
2	0	0	0	0	0	0	231.148	-0.700002	-0.700442	-1.08441	-0.218123	-0.218123	11	-0.0605897	0	0.0605897	0.000000000000000E+000	0.0605897	0.0000000E+000	0.000000000000000E+000	0.000759567
2	0	0	0	0	0	0	232.148	-0.700002	-0.700575	-1.08778	-0.21921	-0.21921	11	-0.0608916	0	0.0608916	0.000000000000000E+000	0.0608916	0.0000000E+000	0.000000000000000E+000	0.00076207
2	0	0	0	0	0	0	233.148	-0.700002	-0.700442	-1.09051	-0.220299	-0.220299	11	-0.0611943	0	0.0611943	0.000000000000000E+000	0.0611943	0.0000000E+000	0.000000000000000E+000	0.00076384
2	0	0	0	0	0	0	234.148	-0.700002	-0.700575	-1.08966	-0.22139	-0.22139	11	-0.0614971	0	0.0614971	0.000000000000000E+000	0.0614971	0.0000000E+000	0.000000000000000E+000	0.000763389
2	0	0	0	0	0	0	235.148	-0.700002	-0.70048	-1.08798	-0.222478	-0.222478	11	-0.0617994	0	0.0617994	0.000000000000000E+000	0.0617994	0.0000000E+000	0.000000000000000E+000	0.000762109
2	0	0	0	0	0	0	236.148	-0.700002	-0.700499	-1.0904	-0.223567	-0.223567	11	-0.0621018	0	0.0621018	0.000000000000000E+000	0.0621018	0.0000000E+000	0.000000000000000E+000	0.000763823
2	0	0	0	0	0	0	237.148	-0.700002	-0.700499	-1.08926	-0.224656	-0.224656	11	-0.0624044	0	0.0624044	0.000000000000000E+000	0.0624044	0.0000000E+000	0.000000000000000E+000	0.000763027
2	0	0	0	0	0	0	238.148	-0.700002	-0.700518	-1.08857	-0.225744	-0.225744	11	-0.0627066	0	0.0627066	0.000000000000000E+000	0.0627066	0.0000000E+000	0.000000000000000E+000	0.000762563
2	0	0	0	0	0	0	239.148	-0.700002	-0.700403	-1.08708	-0.226831	-0.226831	11	-0.0630085	0	0.0630085	0.000000000000000E+000	0.0630085	0.0000000E+000	0.000000000000000E+000	0.000761397
2	0	0	0	0	0	0	240.148	-0.700002	-0.700403	-1.08814	-0.227918	-0.227918	11	-0.0633106	0	0.0633106	0.000000000000000E+000	0.0633106	0.0000000E+000	0.000000000000000E+000	0.000762138
2	0	0	0	0	0	0	241.148	-0.700002	-0.700384	-1.08915	-0.229007	-0.229007	11	-0.063613	0	0.063613	0.000000000000000E+000	0.063613	0.0000000E+000	0.000000000000000E+000	0.000762826
2	0	0	0	0	0	0	242.148	-0.700002	-0.70048	-1.0863	-0.230094	-0.230094	11	-0.063915	0	0.063915	0.000000000000000E+000	0.063915	0.0000000E+000	0.000000000000000E+000	0.000760931
2	0	0	0	0	0	0	243.148	-0.700002	-0.700575	-1.08647	-0.23118	-0.23118	11	-0.0642168	0	0.0642168	0.000000000000000E+000	0.0642168	0.0000000E+000	0.000000000000000E+000	0.000761151
2	0	0	0	0	0	0	244.148	-0.700002	-0.700422	-1.08617	-0.232267	-0.232267	11	-0.0645185	0	0.0645185	0.000000000000000E+000	0.0645185	0.0000000E+000	0.000000000000000E+000	0.000760777
2	0	0	0	0	0	0	245.148	-0.700002	-0.700556	-1.08554	-0.233352	-0.233352	11	-0.0648199	0	0.0648199	0.000000000000000E+000	0.0648199	0.0000000E+000	0.000000000000000E+000	0.000760481
2	0	0	0	0	0	0	246.148	-0.700002	-0.700442	-1.08489	-0.234437	-0.234437	11	-0.0651215	0	0.0651215	0.000000000000000E+000	0.0651215	0.0000000E+000	0.000000000000000E+000	0.000759902
2	0	0	0	0	0	0	247.148	-0.700002	-0.700442	-1.20655	-0.235604	-0.235604	11	-0.0654456	0	0.0654456	0.000000000000000E+000	0.0654456	0.0000000E+000	0.000000000000000E+000	0.000845119
2	0	0	0	0	0	0	248.148	-0.700002	-0.700403	-1.21479	-0.236817	-0.236817	11	-0.0657825	0	0.0657825	0.000000000000000E+000	0.0657825	0.0000000E+000	0.000000000000000E+000	0.000850844
2	0	0	0	0	0	0	249.148	-0.700002	-0.700442	-1.22053	-0.238035	-0.238035	11	-0.0661209	0	0.0661209	0.000000000000000E+000	0.0661209	0.0000000E+000	0.000000000000000E+000	0.00085491
2	0	0	0	0	0	0	250.148	-0.700002	-0.700499	-1.22249	-0.239257	-0.239257	11	-0.0664603	0	0.0664603	0.000000000000000E+000	0.0664603	0.0000000E+000	0.000000000000000E+000	0.000856355
2	0	0	0	0	0	0	251.148	-0.700002	-0.700442	-1.2227	-0.240479	-0.240479	11	-0.0667997	0	0.0667997	0.000000000000000E+000	0.0667997	0.0000000E+000	0.000000000000000E+000	0.000856429
2	0	0	0	0	0	0	252.148	-0.700002	-0.700556	-1.22272	-0.241702	-0.241702	11	-0.0671394	0	0.0671394	0.000000000000000E+000	0.0671394	0.0000000E+000	0.000000000000000E+000	0.000856587
2	0	0	0	0	0	0	253.148	-0.700002	-0.700442	-1.22215	-0.242925	-0.242925	11	-0.0674791	0	0.0674791	0.000000000000000E+000	0.0674791	0.0000000E+000	0.000000000000000E+000	0.000856044
2	0	0	0	0	0	0	254.148	-0.700002	-0.700499	-1.22061	-0.244146	-0.244146	11	-0.0678182	0	0.0678182	0.000000000000000E+000	0.0678182	0.0000000E+000	0.000000000000000E+000	0.000855034
2	0	0	0	0	0	0	255.148	-0.700002	-0.70048	-1.22246	-0.245367	-0.245367	11	-0.0681574	0	0.0681574	0.000000000000000E+000	0.0681574	0.0000000E+000	0.000000000000000E+000	0.000856309
2	0	0	0	0	0	0	256.148	-0.700002	-0.700442	-1.22142	-0.246588	-0.246588	11	-0.0684966	0	0.0684966	0.000000000000000E+000	0.0684966	0.0000000E+000	0.000000000000000E+000	0.000855533
2	0	0	0	0	0	0	257.148	-0.700002	-0.700442	-1.21999	-0.247808	-0.247808	11	-0.0688354	0	0.0688354	0.000000000000000E+000	0.0688354	0.0000000E+000	0.000000000000000E+000	0.000854532
2	0	0	0	0	0	0	258.148	-0.700002	-0.700403	-1.22001	-0.249027	-0.249027	11	-0.0691743	0	0.0691743	0.000000000000000E+000	0.0691743	0.0000000E+000	0.000000000000000E+000	0.000854502
2	0	0	0	0	0	0	259.148	-0.700002	-0.700632	-1.22108	-0.250248	-0.250248	11	-0.0695133	0	0.0695133	0.000000000000000E+000	0.0695133	0.0000000E+000	0.000000000000000E+000	0.00085553
2	0	0	0	0	0	0	260.148	-0.700002	-0.700499	-1.21959	-0.251468	-0.251468	11	-0.0698522	0	0.0698522	0.000000000000000E+000	0.0698522	0.0000000E+000	0.000000000000000E+000	0.000854321
2	0	0	0	0	0	0	261.148	-0.700002	-0.700499	-1.21989	-0.252687	-0.252687	11	-0.0701909	0	0.0701909	0.000000000000000E+000	0.0701909	0.0000000E+000	0.000000000000000E+000	0.00085453
2	0	0	0	0	0	0	262.148	-0.700002	-0.700594	-1.21789	-0.253906	-0.253906	11	-0.0705295	0	0.0705295	0.000000000000000E+000	0.0705295	0.0000000E+000	0.000000000000000E+000	0.000853245
2	0	0	0	0	0	0	263.148	-0.700002	-0.700403	-1.21835	-0.255125	-0.255125	11	-0.070868	0	0.070868	0.000000000000000E+000	0.070868	0.0000000E+000	0.000000000000000E+000	0.000853337
2	0	0	0	0	0	0	264.148	-0.700002	-0.70048	-1.21886	-0.256343	-0.256343	11	-0.0712065	0	0.0712065	0.000000000000000E+000	0.0712065	0.0000000E+000	0.000000000000000E+000	0.00085379
2	0	0	0	0	0	0	265.148	-0.700002	-0.700499	-1.21797	-0.257562	-0.257562	11	-0.071545	0	0.071545	0.000000000000000E+000	0.071545	0.0000000E+000	0.000000000000000E+000	0.000853184
2	0	0	0	0	0	0	266.148	-0.700002	-0.700403	-1.21799	-0.25878	-0.25878	11	-0.0718834	0	0.0718834	0.000000000000000E+000	0.0718834	0.0000000E+000	0.000000000000000E+000	0.000853087
2	0	0	0	0	0	0	267.148	-0.700002	-0.700403	-1.21564	-0.259997	-0.259997	11	-0.0722214	0	0.0722214	0.000000000000000E+000	0.0722214	0.0000000E+000	0.000000000000000E+000	0.000851437
2	0	0	0	0	0	0	268.148	-0.700002	-0.700499	-1.21535	-0.261212	-0.261212	11	-0.072559	0	0.072559	0.000000000000000E+000	0.072559	0.0000000E+000	0.000000000000000E+000	0.000851354
2	0	0	0	0	0	0	268.795	-0.700002	-0.700442	-1.21597	-0.261998	-0.261998	11	-0.0727773	0	0.0727773	0.000000000000000E+000	0.0727773	0.0000000E+000	0.000000000000000E+000	0.000851714