File: ZnPVAGAECH_1 03-20-22-ZnGAPVA ECH-1600 rpm at -1V vs RHE RDE2_03_CA_C05(1).mpt
EC-Lab ASCII FILE
Nb header lines : 77

Chronoamperometry / Chronocoulometry

Run on channel : 5 (SN 6729)
User :
CE vs. WE compliance from -10 V to 10 V
Electrode connection : standard
Potential control : Ewe
Ewe ctrl range : min = -2.50 V, max = 2.50 V
Safety Limits :
	Do not start on E overload
Acquisition started on : 03/20/2022 13:24:21.393
Technique started on : 03/20/2022 13:30:38.872
Loaded Setting File :  NONE
Saved on :
	File : 03-20-22-ZnGAPVA  ECH-1600 rpm at -0_8V vs RHE RDE2_03_CA_C05.mpr
	Directory : \\research-scb.egr.msu.edu\research-scb\Mindy\Koutecky Levich\Zn GA PVA 001\ECH\03-20-22\
	Host : 35.9.136.210
Device : VSP (SN 0012)
Address : 35.9.137.65
EC-Lab for windows v11.43 (software)
Internet server v11.40 (firmware)
Command interpretor v11.40 (firmware)
Electrode material :
Initial state :
Electrolyte :
Comments :
Electrode surface area : 0.001 cm²
Characteristic mass : 0.001 g
Equivalent Weight : 0.000 g/eq.
Density : 0.000 g/cm3
Volume (V) : 0.001 cm³
Cycle Definition : Charge/Discharge alternance
Ei (V)              -0.900
vs.                 Ref
ti (h:m:s)          0:30:0.0000
Imax                pass
unit Imax           mA
Imin                pass
unit Imin           mA
dQM                 0.000
unit dQM            mA.h
record              <I>
dI                  5.000
unit dI             µA
dQ                  0.000
unit dQ             mA.h
dt (s)              0.1000
dta (s)             0.1000
E range min (V)     -2.500
E range max (V)     2.500
I Range             Auto
I Range min         Unset
I Range max         Unset
I Range init        Unset
Bandwidth           5
goto Ns'            0
nc cycles           0

Modify on : 03/20/2022 13:24
Electrode surface area : 0.196 cm²

Modify on : 03/20/2022 13:31
Ei (V)              -0.700

Modify on : 03/20/2022 13:32
Ei (V)              -0.800

Modify on : 03/20/2022 13:32
Ei (V)              -0.750

Modify on : 03/20/2022 13:32
Ei (V)              -0.700

mode	ox/red	error	control changes	Ns changes	counter inc.	Ns	time/s	control/V	Ewe/V	<I>/mA	dQ/C	(Q-Qo)/C	I Range	Q charge/discharge/mA.h	half cycle	Q discharge/mA.h	Q charge/mA.h	Capacity/mA.h	Efficiency/%	cycle number	P/W
2	0	0	0	0	0	0	377.479	-0.899992	-0.900384	-6.93252	-0.000724178	-0.000724178	10	-0.000201161	0	0.000201161	0.000000000000000E+000	0.000201161	0.0000000E+000	0.000000000000000E+000	0.00624194
2	0	0	0	0	0	0	379.179	-0.899992	-0.900404	-5.85374	-0.011148	-0.011148	10	-0.00309666	0	0.00309666	0.000000000000000E+000	0.00309666	0.0000000E+000	0.000000000000000E+000	0.00527073
2	0	0	0	0	0	0	380.879	-0.899992	-0.900499	-5.71937	-0.0209577	-0.0209577	10	-0.00582158	0	0.00582158	0.000000000000000E+000	0.00582158	0.0000000E+000	0.000000000000000E+000	0.00515029
2	0	0	0	0	0	0	382.579	-0.899992	-0.900518	-5.65498	-0.0306162	-0.0306162	10	-0.00850449	0	0.00850449	0.000000000000000E+000	0.00850449	0.0000000E+000	0.000000000000000E+000	0.00509241
2	0	0	0	0	0	0	384.279	-0.899992	-0.900556	-5.62296	-0.0402064	-0.0402064	10	-0.0111684	0	0.0111684	0.000000000000000E+000	0.0111684	0.0000000E+000	0.000000000000000E+000	0.00506379
2	0	0	0	0	0	0	385.979	-0.899992	-0.900556	-5.61202	-0.0497572	-0.0497572	10	-0.0138214	0	0.0138214	0.000000000000000E+000	0.0138214	0.0000000E+000	0.000000000000000E+000	0.00505394
2	0	0	0	0	0	0	387.679	-0.899992	-0.900365	-5.61089	-0.0592997	-0.0592997	10	-0.0164722	0	0.0164722	0.000000000000000E+000	0.0164722	0.0000000E+000	0.000000000000000E+000	0.00505185
2	0	0	0	0	0	0	389.379	-0.899992	-0.900537	-5.60936	-0.0688433	-0.0688433	10	-0.0191231	0	0.0191231	0.000000000000000E+000	0.0191231	0.0000000E+000	0.000000000000000E+000	0.00505144
2	0	0	0	0	0	0	391.079	-0.899992	-0.900556	-5.60395	-0.078373	-0.078373	10	-0.0217703	0	0.0217703	0.000000000000000E+000	0.0217703	0.0000000E+000	0.000000000000000E+000	0.00504667
2	0	0	0	0	0	0	392.779	-0.899992	-0.900442	-5.59792	-0.0878958	-0.0878958	10	-0.0244155	0	0.0244155	0.000000000000000E+000	0.0244155	0.0000000E+000	0.000000000000000E+000	0.0050406
2	0	0	0	0	0	0	394.479	-0.899992	-0.900537	-5.59973	-0.0974053	-0.0974053	10	-0.027057	0	0.027057	0.000000000000000E+000	0.027057	0.0000000E+000	0.000000000000000E+000	0.00504277
2	0	0	0	0	0	0	396.179	-0.899992	-0.900442	-5.59211	-0.106908	-0.106908	10	-0.0296966	0	0.0296966	0.000000000000000E+000	0.0296966	0.0000000E+000	0.000000000000000E+000	0.00503537
2	0	0	0	0	0	0	397.879	-0.899992	-0.900442	-5.5894	-0.116412	-0.116412	10	-0.0323367	0	0.0323367	0.000000000000000E+000	0.0323367	0.0000000E+000	0.000000000000000E+000	0.00503293
2	0	0	0	0	0	0	399.579	-0.899992	-0.900365	-5.60411	-0.125924	-0.125924	10	-0.0349788	0	0.0349788	0.000000000000000E+000	0.0349788	0.0000000E+000	0.000000000000000E+000	0.00504574
2	0	0	0	0	0	0	401.279	-0.899992	-0.900594	-5.59304	-0.13544	-0.13544	10	-0.0376222	0	0.0376222	0.000000000000000E+000	0.0376222	0.0000000E+000	0.000000000000000E+000	0.00503706
2	0	0	0	0	0	0	402.979	-0.899992	-0.900423	-5.58109	-0.144942	-0.144942	10	-0.0402617	0	0.0402617	0.000000000000000E+000	0.0402617	0.0000000E+000	0.000000000000000E+000	0.00502534
2	0	0	0	0	0	0	404.679	-0.899992	-0.900423	-5.57769	-0.154428	-0.154428	10	-0.0428966	0	0.0428966	0.000000000000000E+000	0.0428966	0.0000000E+000	0.000000000000000E+000	0.00502227
2	0	0	0	0	0	0	406.379	-0.899992	-0.900461	-5.57435	-0.163912	-0.163912	10	-0.0455311	0	0.0455311	0.000000000000000E+000	0.0455311	0.0000000E+000	0.000000000000000E+000	0.00501948
2	0	0	0	0	0	0	408.079	-0.899992	-0.90048	-5.57003	-0.173383	-0.173383	10	-0.0481618	0	0.0481618	0.000000000000000E+000	0.0481618	0.0000000E+000	0.000000000000000E+000	0.0050157
2	0	0	0	0	0	0	409.779	-0.899992	-0.900384	-5.56628	-0.18285	-0.18285	10	-0.0507915	0	0.0507915	0.000000000000000E+000	0.0507915	0.0000000E+000	0.000000000000000E+000	0.00501179
2	0	0	0	0	0	0	411.479	-0.899992	-0.900404	-5.54966	-0.192296	-0.192296	10	-0.0534155	0	0.0534155	0.000000000000000E+000	0.0534155	0.0000000E+000	0.000000000000000E+000	0.00499693
2	0	0	0	0	0	0	413.179	-0.899992	-0.900174	-5.55384	-0.20173	-0.20173	10	-0.0560362	0	0.0560362	0.000000000000000E+000	0.0560362	0.0000000E+000	0.000000000000000E+000	0.00499942
2	0	0	0	0	0	0	414.879	-0.899992	-0.900594	-5.54063	-0.211156	-0.211156	10	-0.0586544	0	0.0586544	0.000000000000000E+000	0.0586544	0.0000000E+000	0.000000000000000E+000	0.00498986
2	0	0	0	0	0	0	416.579	-0.899992	-0.90048	-5.52469	-0.22057	-0.22057	10	-0.0612694	0	0.0612694	0.000000000000000E+000	0.0612694	0.0000000E+000	0.000000000000000E+000	0.00497487
2	0	0	0	0	0	0	418.279	-0.899992	-0.900518	-5.51689	-0.229956	-0.229956	10	-0.0638766	0	0.0638766	0.000000000000000E+000	0.0638766	0.0000000E+000	0.000000000000000E+000	0.00496806
2	0	0	0	0	0	0	419.979	-0.899992	-0.900575	-5.50883	-0.239329	-0.239329	10	-0.0664804	0	0.0664804	0.000000000000000E+000	0.0664804	0.0000000E+000	0.000000000000000E+000	0.00496111
2	0	0	0	0	0	0	421.679	-0.899992	-0.900404	-5.51182	-0.24869	-0.24869	10	-0.0690804	0	0.0690804	0.000000000000000E+000	0.0690804	0.0000000E+000	0.000000000000000E+000	0.00496286
2	0	0	0	0	0	0	423.379	-0.899992	-0.900652	-5.484	-0.258033	-0.258033	10	-0.0716757	0	0.0716757	0.000000000000000E+000	0.0716757	0.0000000E+000	0.000000000000000E+000	0.00493918
2	0	0	0	0	0	0	425.079	-0.899992	-0.900499	-5.48735	-0.267363	-0.267363	10	-0.0742674	0	0.0742674	0.000000000000000E+000	0.0742674	0.0000000E+000	0.000000000000000E+000	0.00494135
2	0	0	0	0	0	0	426.779	-0.899992	-0.900461	-5.48982	-0.276697	-0.276697	10	-0.0768602	0	0.0768602	0.000000000000000E+000	0.0768602	0.0000000E+000	0.000000000000000E+000	0.00494337
2	0	0	0	0	0	0	428.479	-0.899992	-0.900423	-5.49064	-0.286025	-0.286025	10	-0.0794513	0	0.0794513	0.000000000000000E+000	0.0794513	0.0000000E+000	0.000000000000000E+000	0.0049439
2	0	0	0	0	0	0	430.179	-0.899992	-0.900537	-5.48757	-0.295365	-0.295365	10	-0.082046	0	0.082046	0.000000000000000E+000	0.082046	0.0000000E+000	0.000000000000000E+000	0.00494176
2	0	0	0	0	0	0	431.879	-0.899992	-0.900461	-5.48542	-0.304688	-0.304688	10	-0.0846355	0	0.0846355	0.000000000000000E+000	0.0846355	0.0000000E+000	0.000000000000000E+000	0.0049394
2	0	0	0	0	0	0	433.579	-0.899992	-0.900537	-5.46288	-0.314	-0.314	10	-0.0872222	0	0.0872222	0.000000000000000E+000	0.0872222	0.0000000E+000	0.000000000000000E+000	0.00491953
2	0	0	0	0	0	0	435.279	-0.899992	-0.900365	-5.45767	-0.323291	-0.323291	10	-0.0898029	0	0.0898029	0.000000000000000E+000	0.0898029	0.0000000E+000	0.000000000000000E+000	0.0049139
2	0	0	0	0	0	0	436.979	-0.899992	-0.900556	-5.44912	-0.332558	-0.332558	10	-0.0923772	0	0.0923772	0.000000000000000E+000	0.0923772	0.0000000E+000	0.000000000000000E+000	0.00490724
2	0	0	0	0	0	0	438.679	-0.899992	-0.90048	-5.44811	-0.341827	-0.341827	10	-0.094952	0	0.094952	0.000000000000000E+000	0.094952	0.0000000E+000	0.000000000000000E+000	0.00490591
2	0	0	0	0	0	0	440.379	-0.899992	-0.900327	-5.4542	-0.351103	-0.351103	10	-0.0975285	0	0.0975285	0.000000000000000E+000	0.0975285	0.0000000E+000	0.000000000000000E+000	0.00491057
2	0	0	0	0	0	0	442.079	-0.899992	-0.900423	-5.48561	-0.360397	-0.360397	10	-0.10011	0	0.10011	0.000000000000000E+000	0.10011	0.0000000E+000	0.000000000000000E+000	0.00493936
2	0	0	0	0	0	0	443.779	-0.899992	-0.900442	-5.4793	-0.369721	-0.369721	10	-0.1027	0	0.1027	0.000000000000000E+000	0.1027	0.0000000E+000	0.000000000000000E+000	0.00493379
2	0	0	1	0	0	0	445.479	-0.700002	-0.700556	-2.83613	-0.37818	-0.37818	11	-0.10505	0	0.10505	0.000000000000000E+000	0.10505	0.0000000E+000	0.000000000000000E+000	0.00198687
2	0	0	1	0	0	0	447.179	-0.700002	-0.700518	-3.14607	-0.383397	-0.383397	11	-0.106499	0	0.106499	0.000000000000000E+000	0.106499	0.0000000E+000	0.000000000000000E+000	0.00220388
2	0	0	1	0	0	0	448.879	-0.700002	-0.700365	-3.19068	-0.388791	-0.388791	11	-0.107998	0	0.107998	0.000000000000000E+000	0.107998	0.0000000E+000	0.000000000000000E+000	0.00223464
2	0	0	1	0	0	0	450.579	-0.700002	-0.700403	-3.20241	-0.394228	-0.394228	11	-0.109508	0	0.109508	0.000000000000000E+000	0.109508	0.0000000E+000	0.000000000000000E+000	0.00224298
2	0	0	1	0	0	0	452.279	-0.700002	-0.700537	-3.20469	-0.399677	-0.399677	11	-0.111021	0	0.111021	0.000000000000000E+000	0.111021	0.0000000E+000	0.000000000000000E+000	0.002245
2	0	0	1	0	0	0	453.979	-0.700002	-0.700422	-3.20377	-0.405121	-0.405121	11	-0.112534	0	0.112534	0.000000000000000E+000	0.112534	0.0000000E+000	0.000000000000000E+000	0.00224399
2	0	0	1	0	0	0	455.679	-0.700002	-0.700537	-3.19575	-0.410561	-0.410561	11	-0.114045	0	0.114045	0.000000000000000E+000	0.114045	0.0000000E+000	0.000000000000000E+000	0.00223874
2	0	0	1	0	0	0	457.379	-0.700002	-0.700461	-3.19462	-0.415994	-0.415994	11	-0.115554	0	0.115554	0.000000000000000E+000	0.115554	0.0000000E+000	0.000000000000000E+000	0.00223771
2	0	0	1	0	0	0	459.079	-0.700002	-0.700422	-3.1913	-0.42142	-0.42142	11	-0.117061	0	0.117061	0.000000000000000E+000	0.117061	0.0000000E+000	0.000000000000000E+000	0.00223526
2	0	0	0	0	0	0	460.779	-0.800047	-0.800365	-4.57504	-0.427427	-0.427427	11	-0.11873	0	0.11873	0.000000000000000E+000	0.11873	0.0000000E+000	0.000000000000000E+000	0.0036617
2	0	0	0	0	0	0	462.479	-0.800047	-0.800308	-4.39439	-0.434985	-0.434985	11	-0.120829	0	0.120829	0.000000000000000E+000	0.120829	0.0000000E+000	0.000000000000000E+000	0.00351687
2	0	0	0	0	0	0	464.179	-0.800047	-0.800613	-4.35412	-0.442413	-0.442413	11	-0.122893	0	0.122893	0.000000000000000E+000	0.122893	0.0000000E+000	0.000000000000000E+000	0.00348597
2	0	0	0	0	0	0	465.879	-0.800047	-0.800346	-4.33801	-0.449799	-0.449799	11	-0.124944	0	0.124944	0.000000000000000E+000	0.124944	0.0000000E+000	0.000000000000000E+000	0.00347191
2	0	0	0	0	0	0	467.579	-0.800047	-0.80069	-4.33769	-0.457168	-0.457168	11	-0.126991	0	0.126991	0.000000000000000E+000	0.126991	0.0000000E+000	0.000000000000000E+000	0.00347315
2	0	0	0	0	0	0	469.279	-0.800047	-0.800327	-4.33242	-0.464536	-0.464536	11	-0.129038	0	0.129038	0.000000000000000E+000	0.129038	0.0000000E+000	0.000000000000000E+000	0.00346735
2	0	0	0	0	0	0	470.979	-0.800047	-0.800537	-4.33506	-0.471905	-0.471905	11	-0.131085	0	0.131085	0.000000000000000E+000	0.131085	0.0000000E+000	0.000000000000000E+000	0.00347037
2	0	0	0	0	0	0	472.679	-0.800047	-0.800556	-4.32845	-0.479267	-0.479267	11	-0.13313	0	0.13313	0.000000000000000E+000	0.13313	0.0000000E+000	0.000000000000000E+000	0.00346517
2	0	0	1	0	0	0	474.379	-0.750025	-0.750499	-3.70966	-0.485784	-0.485784	11	-0.13494	0	0.13494	0.000000000000000E+000	0.13494	0.0000000E+000	0.000000000000000E+000	0.0027841
2	0	0	1	0	0	0	476.079	-0.750025	-0.750346	-3.74257	-0.492124	-0.492124	11	-0.136701	0	0.136701	0.000000000000000E+000	0.136701	0.0000000E+000	0.000000000000000E+000	0.00280823
2	0	0	1	0	0	0	477.779	-0.750025	-0.750594	-3.74545	-0.498489	-0.498489	11	-0.138469	0	0.138469	0.000000000000000E+000	0.138469	0.0000000E+000	0.000000000000000E+000	0.00281131
2	0	0	1	0	0	0	479.479	-0.750025	-0.750556	-3.74789	-0.504861	-0.504861	11	-0.140239	0	0.140239	0.000000000000000E+000	0.140239	0.0000000E+000	0.000000000000000E+000	0.002813
2	0	0	1	0	0	0	481.179	-0.750025	-0.750613	-3.7443	-0.51123	-0.51123	11	-0.142008	0	0.142008	0.000000000000000E+000	0.142008	0.0000000E+000	0.000000000000000E+000	0.00281052
2	0	0	1	0	0	0	482.879	-0.750025	-0.750442	-3.73943	-0.517589	-0.517589	11	-0.143775	0	0.143775	0.000000000000000E+000	0.143775	0.0000000E+000	0.000000000000000E+000	0.00280622
2	0	0	1	0	0	0	484.579	-0.750025	-0.750403	-3.73471	-0.523942	-0.523942	11	-0.145539	0	0.145539	0.000000000000000E+000	0.145539	0.0000000E+000	0.000000000000000E+000	0.00280254
2	0	0	0	0	0	0	486.279	-0.700002	-0.700442	-3.1362	-0.529327	-0.529327	11	-0.147035	0	0.147035	0.000000000000000E+000	0.147035	0.0000000E+000	0.000000000000000E+000	0.00219672
2	0	0	0	0	0	0	487.979	-0.700002	-0.700422	-3.15252	-0.534678	-0.534678	11	-0.148522	0	0.148522	0.000000000000000E+000	0.148522	0.0000000E+000	0.000000000000000E+000	0.0022081
2	0	0	0	0	0	0	489.679	-0.700002	-0.700442	-3.15945	-0.540043	-0.540043	11	-0.150012	0	0.150012	0.000000000000000E+000	0.150012	0.0000000E+000	0.000000000000000E+000	0.00221301
2	0	0	0	0	0	0	491.379	-0.700002	-0.700556	-3.1617	-0.545414	-0.545414	11	-0.151504	0	0.151504	0.000000000000000E+000	0.151504	0.0000000E+000	0.000000000000000E+000	0.00221495
2	0	0	0	0	0	0	493.079	-0.700002	-0.700384	-3.1618	-0.550789	-0.550789	11	-0.152997	0	0.152997	0.000000000000000E+000	0.152997	0.0000000E+000	0.000000000000000E+000	0.00221448
2	0	0	0	0	0	0	494.779	-0.700002	-0.700461	-3.16116	-0.556164	-0.556164	11	-0.15449	0	0.15449	0.000000000000000E+000	0.15449	0.0000000E+000	0.000000000000000E+000	0.00221427
2	0	0	0	0	0	0	496.479	-0.700002	-0.700442	-3.16111	-0.561538	-0.561538	11	-0.155983	0	0.155983	0.000000000000000E+000	0.155983	0.0000000E+000	0.000000000000000E+000	0.00221417
2	0	0	0	0	0	0	498.179	-0.700002	-0.700403	-3.1559	-0.566908	-0.566908	11	-0.157474	0	0.157474	0.000000000000000E+000	0.157474	0.0000000E+000	0.000000000000000E+000	0.0022104
2	0	0	0	0	0	0	499.879	-0.700002	-0.700499	-3.15319	-0.572271	-0.572271	11	-0.158964	0	0.158964	0.000000000000000E+000	0.158964	0.0000000E+000	0.000000000000000E+000	0.00220881
2	0	0	0	0	0	0	501.579	-0.700002	-0.700594	-3.14983	-0.57763	-0.57763	11	-0.160453	0	0.160453	0.000000000000000E+000	0.160453	0.0000000E+000	0.000000000000000E+000	0.00220675
2	0	0	0	0	0	0	503.279	-0.700002	-0.700499	-3.1475	-0.582984	-0.582984	11	-0.16194	0	0.16194	0.000000000000000E+000	0.16194	0.0000000E+000	0.000000000000000E+000	0.00220482
2	0	0	0	0	0	0	504.979	-0.700002	-0.70027	-3.14452	-0.588332	-0.588332	11	-0.163426	0	0.163426	0.000000000000000E+000	0.163426	0.0000000E+000	0.000000000000000E+000	0.00220201
2	0	0	0	0	0	0	506.679	-0.700002	-0.700365	-2.93156	-0.593445	-0.593445	11	-0.164846	0	0.164846	0.000000000000000E+000	0.164846	0.0000000E+000	0.000000000000000E+000	0.00205316
2	0	0	0	0	0	0	508.379	-0.700002	-0.700461	-2.88653	-0.598382	-0.598382	11	-0.166217	0	0.166217	0.000000000000000E+000	0.166217	0.0000000E+000	0.000000000000000E+000	0.0020219
2	0	0	0	0	0	0	510.079	-0.700002	-0.700537	-2.85869	-0.603262	-0.603262	11	-0.167573	0	0.167573	0.000000000000000E+000	0.167573	0.0000000E+000	0.000000000000000E+000	0.00200262
2	0	0	0	0	0	0	511.779	-0.700002	-0.700499	-2.84749	-0.608109	-0.608109	11	-0.168919	0	0.168919	0.000000000000000E+000	0.168919	0.0000000E+000	0.000000000000000E+000	0.00199466
2	0	0	0	0	0	0	513.479	-0.700002	-0.700518	-2.83741	-0.612941	-0.612941	11	-0.170261	0	0.170261	0.000000000000000E+000	0.170261	0.0000000E+000	0.000000000000000E+000	0.00198765
2	0	0	0	0	0	0	515.179	-0.700002	-0.700537	-2.8319	-0.617762	-0.617762	11	-0.171601	0	0.171601	0.000000000000000E+000	0.171601	0.0000000E+000	0.000000000000000E+000	0.00198385
2	0	0	0	0	0	0	516.879	-0.700002	-0.70069	-2.82382	-0.622572	-0.622572	11	-0.172937	0	0.172937	0.000000000000000E+000	0.172937	0.0000000E+000	0.000000000000000E+000	0.00197862
2	0	0	0	0	0	0	518.579	-0.700002	-0.700403	-2.81932	-0.627368	-0.627368	11	-0.174269	0	0.174269	0.000000000000000E+000	0.174269	0.0000000E+000	0.000000000000000E+000	0.00197466
2	0	0	0	0	0	0	520.279	-0.700002	-0.700537	-2.81222	-0.632156	-0.632156	11	-0.175599	0	0.175599	0.000000000000000E+000	0.175599	0.0000000E+000	0.000000000000000E+000	0.00197007
2	0	0	0	0	0	0	521.979	-0.700002	-0.700575	-2.8056	-0.636933	-0.636933	11	-0.176926	0	0.176926	0.000000000000000E+000	0.176926	0.0000000E+000	0.000000000000000E+000	0.00196553
2	0	0	0	0	0	0	523.679	-0.700002	-0.700613	-2.80527	-0.641701	-0.641701	11	-0.17825	0	0.17825	0.000000000000000E+000	0.17825	0.0000000E+000	0.000000000000000E+000	0.00196541
2	0	0	0	0	0	0	525.379	-0.700002	-0.70048	-2.80091	-0.646465	-0.646465	11	-0.179574	0	0.179574	0.000000000000000E+000	0.179574	0.0000000E+000	0.000000000000000E+000	0.00196198
2	0	0	0	0	0	0	527.079	-0.700002	-0.700499	-2.79643	-0.651224	-0.651224	11	-0.180896	0	0.180896	0.000000000000000E+000	0.180896	0.0000000E+000	0.000000000000000E+000	0.00195889
2	0	0	0	0	0	0	528.779	-0.700002	-0.700461	-2.794	-0.655976	-0.655976	11	-0.182215	0	0.182215	0.000000000000000E+000	0.182215	0.0000000E+000	0.000000000000000E+000	0.00195708
2	0	0	0	0	0	0	530.479	-0.700002	-0.70069	-2.7917	-0.660725	-0.660725	11	-0.183535	0	0.183535	0.000000000000000E+000	0.183535	0.0000000E+000	0.000000000000000E+000	0.00195612
2	0	0	0	0	0	0	532.179	-0.700002	-0.700422	-2.78735	-0.665465	-0.665465	11	-0.184851	0	0.184851	0.000000000000000E+000	0.184851	0.0000000E+000	0.000000000000000E+000	0.00195232
2	0	0	0	0	0	0	533.879	-0.700002	-0.700575	-2.7851	-0.6702	-0.6702	11	-0.186167	0	0.186167	0.000000000000000E+000	0.186167	0.0000000E+000	0.000000000000000E+000	0.00195117
2	0	0	0	0	0	0	535.579	-0.700002	-0.700499	-2.7858	-0.674937	-0.674937	11	-0.187482	0	0.187482	0.000000000000000E+000	0.187482	0.0000000E+000	0.000000000000000E+000	0.00195145
2	0	0	0	0	0	0	537.279	-0.700002	-0.700365	-2.7798	-0.679665	-0.679665	11	-0.188796	0	0.188796	0.000000000000000E+000	0.188796	0.0000000E+000	0.000000000000000E+000	0.00194687
2	0	0	0	0	0	0	538.979	-0.700002	-0.700537	-2.77628	-0.684388	-0.684388	11	-0.190108	0	0.190108	0.000000000000000E+000	0.190108	0.0000000E+000	0.000000000000000E+000	0.00194489
2	0	0	0	0	0	0	540.679	-0.700002	-0.700556	-2.736	-0.689095	-0.689095	11	-0.191415	0	0.191415	0.000000000000000E+000	0.191415	0.0000000E+000	0.000000000000000E+000	0.00191672
2	0	0	0	0	0	0	542.379	-0.700002	-0.70048	-2.62807	-0.693624	-0.693624	11	-0.192673	0	0.192673	0.000000000000000E+000	0.192673	0.0000000E+000	0.000000000000000E+000	0.00184091
2	0	0	0	0	0	0	544.079	-0.700002	-0.700575	-2.6015	-0.698066	-0.698066	11	-0.193907	0	0.193907	0.000000000000000E+000	0.193907	0.0000000E+000	0.000000000000000E+000	0.00182255
2	0	0	0	0	0	0	545.779	-0.700002	-0.700518	-2.59104	-0.70248	-0.70248	11	-0.195133	0	0.195133	0.000000000000000E+000	0.195133	0.0000000E+000	0.000000000000000E+000	0.00181507
2	0	0	0	0	0	0	547.479	-0.700002	-0.700537	-2.58253	-0.706879	-0.706879	11	-0.196355	0	0.196355	0.000000000000000E+000	0.196355	0.0000000E+000	0.000000000000000E+000	0.00180916
2	0	0	0	0	0	0	549.179	-0.700002	-0.700327	-2.57962	-0.711265	-0.711265	11	-0.197574	0	0.197574	0.000000000000000E+000	0.197574	0.0000000E+000	0.000000000000000E+000	0.00180657
2	0	0	0	0	0	0	550.879	-0.700002	-0.700556	-2.57653	-0.715649	-0.715649	11	-0.198791	0	0.198791	0.000000000000000E+000	0.198791	0.0000000E+000	0.000000000000000E+000	0.00180501
2	0	0	0	0	0	0	552.579	-0.700002	-0.700594	-2.57144	-0.720026	-0.720026	11	-0.200007	0	0.200007	0.000000000000000E+000	0.200007	0.0000000E+000	0.000000000000000E+000	0.00180153
2	0	0	0	0	0	0	554.279	-0.700002	-0.700384	-2.56454	-0.724392	-0.724392	11	-0.20122	0	0.20122	0.000000000000000E+000	0.20122	0.0000000E+000	0.000000000000000E+000	0.00179617
2	0	0	0	0	0	0	555.979	-0.700002	-0.700556	-2.56391	-0.728754	-0.728754	11	-0.202432	0	0.202432	0.000000000000000E+000	0.202432	0.0000000E+000	0.000000000000000E+000	0.00179616
2	0	0	0	0	0	0	557.679	-0.700002	-0.700422	-2.56107	-0.733109	-0.733109	11	-0.203641	0	0.203641	0.000000000000000E+000	0.203641	0.0000000E+000	0.000000000000000E+000	0.00179383
2	0	0	0	0	0	0	559.379	-0.700002	-0.700442	-2.56032	-0.737462	-0.737462	11	-0.204851	0	0.204851	0.000000000000000E+000	0.204851	0.0000000E+000	0.000000000000000E+000	0.00179335
2	0	0	0	0	0	0	561.079	-0.700002	-0.700365	-2.55815	-0.741811	-0.741811	11	-0.206059	0	0.206059	0.000000000000000E+000	0.206059	0.0000000E+000	0.000000000000000E+000	0.00179164
2	0	0	0	0	0	0	562.779	-0.700002	-0.700461	-2.56199	-0.746164	-0.746164	11	-0.207268	0	0.207268	0.000000000000000E+000	0.207268	0.0000000E+000	0.000000000000000E+000	0.00179458
2	0	0	0	0	0	0	564.479	-0.700002	-0.700346	-2.55772	-0.750518	-0.750518	11	-0.208477	0	0.208477	0.000000000000000E+000	0.208477	0.0000000E+000	0.000000000000000E+000	0.00179129
2	0	0	0	0	0	0	566.179	-0.700002	-0.700556	-2.43793	-0.754808	-0.754808	11	-0.209669	0	0.209669	0.000000000000000E+000	0.209669	0.0000000E+000	0.000000000000000E+000	0.00170791
2	0	0	0	0	0	0	567.879	-0.700002	-0.700518	-2.315	-0.758821	-0.758821	11	-0.210784	0	0.210784	0.000000000000000E+000	0.210784	0.0000000E+000	0.000000000000000E+000	0.0016217
2	0	0	0	0	0	0	569.579	-0.700002	-0.700518	-2.26024	-0.762695	-0.762695	11	-0.21186	0	0.21186	0.000000000000000E+000	0.21186	0.0000000E+000	0.000000000000000E+000	0.00158334
2	0	0	0	0	0	0	571.279	-0.700002	-0.700518	-2.22614	-0.766509	-0.766509	11	-0.212919	0	0.212919	0.000000000000000E+000	0.212919	0.0000000E+000	0.000000000000000E+000	0.00155945
2	0	0	0	0	0	0	572.979	-0.700002	-0.700537	-2.22548	-0.770293	-0.770293	11	-0.21397	0	0.21397	0.000000000000000E+000	0.21397	0.0000000E+000	0.000000000000000E+000	0.00155903
2	0	0	0	0	0	0	574.679	-0.700002	-0.700442	-2.20875	-0.774057	-0.774057	11	-0.215016	0	0.215016	0.000000000000000E+000	0.215016	0.0000000E+000	0.000000000000000E+000	0.0015471
2	0	0	0	0	0	0	576.379	-0.700002	-0.700403	-2.19667	-0.777803	-0.777803	11	-0.216056	0	0.216056	0.000000000000000E+000	0.216056	0.0000000E+000	0.000000000000000E+000	0.00153856
2	0	0	0	0	0	0	578.079	-0.700002	-0.70048	-2.19294	-0.781536	-0.781536	11	-0.217093	0	0.217093	0.000000000000000E+000	0.217093	0.0000000E+000	0.000000000000000E+000	0.00153611
2	0	0	0	0	0	0	579.779	-0.700002	-0.700422	-2.1907	-0.78526	-0.78526	11	-0.218128	0	0.218128	0.000000000000000E+000	0.218128	0.0000000E+000	0.000000000000000E+000	0.00153441
2	0	0	0	0	0	0	581.479	-0.700002	-0.700575	-2.18224	-0.788981	-0.788981	11	-0.219161	0	0.219161	0.000000000000000E+000	0.219161	0.0000000E+000	0.000000000000000E+000	0.00152883
2	0	0	0	0	0	0	583.179	-0.700002	-0.70048	-2.19515	-0.792706	-0.792706	11	-0.220196	0	0.220196	0.000000000000000E+000	0.220196	0.0000000E+000	0.000000000000000E+000	0.00153766
2	0	0	0	0	0	0	584.879	-0.700002	-0.700422	-2.19031	-0.796432	-0.796432	11	-0.221231	0	0.221231	0.000000000000000E+000	0.221231	0.0000000E+000	0.000000000000000E+000	0.00153414
2	0	0	0	0	0	0	586.579	-0.700002	-0.700442	-2.18212	-0.800154	-0.800154	11	-0.222265	0	0.222265	0.000000000000000E+000	0.222265	0.0000000E+000	0.000000000000000E+000	0.00152845
2	0	0	0	0	0	0	588.279	-0.700002	-0.700365	-2.19399	-0.803875	-0.803875	11	-0.223299	0	0.223299	0.000000000000000E+000	0.223299	0.0000000E+000	0.000000000000000E+000	0.0015366
2	0	0	0	0	0	0	589.979	-0.700002	-0.700327	-2.1862	-0.807592	-0.807592	11	-0.224331	0	0.224331	0.000000000000000E+000	0.224331	0.0000000E+000	0.000000000000000E+000	0.00153105
2	0	0	0	0	0	0	591.679	-0.700002	-0.700461	-2.17812	-0.811307	-0.811307	11	-0.225363	0	0.225363	0.000000000000000E+000	0.225363	0.0000000E+000	0.000000000000000E+000	0.00152569
2	0	0	0	0	0	0	593.379	-0.700002	-0.700499	-2.1855	-0.815019	-0.815019	11	-0.226394	0	0.226394	0.000000000000000E+000	0.226394	0.0000000E+000	0.000000000000000E+000	0.00153094
2	0	0	0	0	0	0	595.079	-0.700002	-0.700518	-2.07601	-0.818645	-0.818645	11	-0.227401	0	0.227401	0.000000000000000E+000	0.227401	0.0000000E+000	0.000000000000000E+000	0.00145428
2	0	0	0	0	0	0	596.779	-0.700002	-0.700442	-2.03181	-0.822132	-0.822132	11	-0.22837	0	0.22837	0.000000000000000E+000	0.22837	0.0000000E+000	0.000000000000000E+000	0.00142316
2	0	0	0	0	0	0	598.479	-0.700002	-0.700499	-2.0105	-0.825562	-0.825562	11	-0.229323	0	0.229323	0.000000000000000E+000	0.229323	0.0000000E+000	0.000000000000000E+000	0.00140835
2	0	0	0	0	0	0	600.179	-0.700002	-0.700499	-1.99911	-0.828961	-0.828961	11	-0.230267	0	0.230267	0.000000000000000E+000	0.230267	0.0000000E+000	0.000000000000000E+000	0.00140037
2	0	0	0	0	0	0	601.879	-0.700002	-0.700499	-1.98724	-0.83234	-0.83234	11	-0.231205	0	0.231205	0.000000000000000E+000	0.231205	0.0000000E+000	0.000000000000000E+000	0.00139206
2	0	0	0	0	0	0	603.579	-0.700002	-0.70048	-1.97754	-0.835715	-0.835715	11	-0.232143	0	0.232143	0.000000000000000E+000	0.232143	0.0000000E+000	0.000000000000000E+000	0.00138523
2	0	0	0	0	0	0	605.279	-0.700002	-0.700594	-1.97911	-0.839083	-0.839083	11	-0.233079	0	0.233079	0.000000000000000E+000	0.233079	0.0000000E+000	0.000000000000000E+000	0.00138656
2	0	0	0	0	0	0	606.979	-0.700002	-0.700442	-1.97719	-0.842444	-0.842444	11	-0.234012	0	0.234012	0.000000000000000E+000	0.234012	0.0000000E+000	0.000000000000000E+000	0.0013849
2	0	0	0	0	0	0	608.679	-0.700002	-0.700461	-1.97141	-0.84579	-0.84579	11	-0.234942	0	0.234942	0.000000000000000E+000	0.234942	0.0000000E+000	0.000000000000000E+000	0.0013809
2	0	0	0	0	0	0	610.379	-0.700002	-0.700537	-1.96982	-0.849136	-0.849136	11	-0.235871	0	0.235871	0.000000000000000E+000	0.235871	0.0000000E+000	0.000000000000000E+000	0.00137993
2	0	0	0	0	0	0	612.079	-0.700002	-0.700632	-1.9676	-0.85249	-0.85249	11	-0.236803	0	0.236803	0.000000000000000E+000	0.236803	0.0000000E+000	0.000000000000000E+000	0.00137856
2	0	0	0	0	0	0	613.779	-0.700002	-0.70048	-1.97299	-0.855849	-0.855849	11	-0.237736	0	0.237736	0.000000000000000E+000	0.237736	0.0000000E+000	0.000000000000000E+000	0.00138204
2	0	0	0	0	0	0	615.479	-0.700002	-0.700461	-1.97803	-0.859208	-0.859208	11	-0.238669	0	0.238669	0.000000000000000E+000	0.238669	0.0000000E+000	0.000000000000000E+000	0.00138553
2	0	0	0	0	0	0	617.179	-0.700002	-0.700499	-1.92886	-0.862549	-0.862549	11	-0.239597	0	0.239597	0.000000000000000E+000	0.239597	0.0000000E+000	0.000000000000000E+000	0.00135116
2	0	0	0	0	0	0	618.879	-0.700002	-0.700461	-1.85092	-0.865743	-0.865743	11	-0.240484	0	0.240484	0.000000000000000E+000	0.240484	0.0000000E+000	0.000000000000000E+000	0.00129649
2	0	0	0	0	0	0	620.579	-0.700002	-0.700365	-1.80987	-0.868845	-0.868845	11	-0.241346	0	0.241346	0.000000000000000E+000	0.241346	0.0000000E+000	0.000000000000000E+000	0.00126757
2	0	0	0	0	0	0	622.279	-0.700002	-0.700461	-1.78382	-0.871896	-0.871896	11	-0.242193	0	0.242193	0.000000000000000E+000	0.242193	0.0000000E+000	0.000000000000000E+000	0.00124949
2	0	0	0	0	0	0	623.979	-0.700002	-0.70048	-1.76511	-0.874918	-0.874918	11	-0.243033	0	0.243033	0.000000000000000E+000	0.243033	0.0000000E+000	0.000000000000000E+000	0.00123643
2	0	0	0	0	0	0	625.679	-0.700002	-0.700537	-1.75937	-0.877923	-0.877923	11	-0.243867	0	0.243867	0.000000000000000E+000	0.243867	0.0000000E+000	0.000000000000000E+000	0.0012325
2	0	0	0	0	0	0	627.379	-0.700002	-0.700384	-1.75479	-0.880917	-0.880917	11	-0.244699	0	0.244699	0.000000000000000E+000	0.244699	0.0000000E+000	0.000000000000000E+000	0.00122903
2	0	0	0	0	0	0	629.079	-0.700002	-0.700499	-1.75798	-0.883901	-0.883901	11	-0.245528	0	0.245528	0.000000000000000E+000	0.245528	0.0000000E+000	0.000000000000000E+000	0.00123146
2	0	0	0	0	0	0	630.779	-0.700002	-0.700422	-1.75484	-0.886875	-0.886875	11	-0.246354	0	0.246354	0.000000000000000E+000	0.246354	0.0000000E+000	0.000000000000000E+000	0.00122913
2	0	0	0	0	0	0	632.479	-0.700002	-0.700632	-1.74415	-0.889844	-0.889844	11	-0.247179	0	0.247179	0.000000000000000E+000	0.247179	0.0000000E+000	0.000000000000000E+000	0.00122201
2	0	0	0	0	0	0	634.179	-0.700002	-0.700594	-1.73836	-0.892797	-0.892797	11	-0.247999	0	0.247999	0.000000000000000E+000	0.247999	0.0000000E+000	0.000000000000000E+000	0.00121788
2	0	0	0	0	0	0	635.879	-0.700002	-0.700556	-1.72936	-0.895743	-0.895743	11	-0.248818	0	0.248818	0.000000000000000E+000	0.248818	0.0000000E+000	0.000000000000000E+000	0.00121152
2	0	0	0	0	0	0	637.579	-0.700002	-0.700537	-1.72348	-0.898679	-0.898679	11	-0.249633	0	0.249633	0.000000000000000E+000	0.249633	0.0000000E+000	0.000000000000000E+000	0.00120736
2	0	0	0	0	0	0	639.279	-0.700002	-0.700365	-1.72405	-0.901611	-0.901611	11	-0.250448	0	0.250448	0.000000000000000E+000	0.250448	0.0000000E+000	0.000000000000000E+000	0.00120747
2	0	0	0	0	0	0	640.979	-0.700002	-0.700461	-1.70234	-0.904536	-0.904536	11	-0.25126	0	0.25126	0.000000000000000E+000	0.25126	0.0000000E+000	0.000000000000000E+000	0.00119242
2	0	0	0	0	0	0	642.679	-0.700002	-0.700556	-1.7089	-0.907454	-0.907454	11	-0.25207	0	0.25207	0.000000000000000E+000	0.25207	0.0000000E+000	0.000000000000000E+000	0.00119718
2	0	0	0	0	0	0	644.379	-0.700002	-0.700575	-1.68927	-0.910354	-0.910354	11	-0.252876	0	0.252876	0.000000000000000E+000	0.252876	0.0000000E+000	0.000000000000000E+000	0.00118346
2	0	0	0	0	0	0	646.079	-0.700002	-0.700422	-1.63711	-0.913179	-0.913179	11	-0.253661	0	0.253661	0.000000000000000E+000	0.253661	0.0000000E+000	0.000000000000000E+000	0.00114667
2	0	0	0	0	0	0	647.779	-0.700002	-0.700461	-1.60627	-0.915938	-0.915938	11	-0.254427	0	0.254427	0.000000000000000E+000	0.254427	0.0000000E+000	0.000000000000000E+000	0.00112513
2	0	0	0	0	0	0	649.479	-0.700002	-0.700461	-1.59143	-0.918652	-0.918652	11	-0.255181	0	0.255181	0.000000000000000E+000	0.255181	0.0000000E+000	0.000000000000000E+000	0.00111473
2	0	0	0	0	0	0	651.179	-0.700002	-0.70048	-1.59109	-0.921354	-0.921354	11	-0.255932	0	0.255932	0.000000000000000E+000	0.255932	0.0000000E+000	0.000000000000000E+000	0.00111453
2	0	0	0	0	0	0	652.879	-0.700002	-0.700499	-1.58895	-0.924052	-0.924052	11	-0.256681	0	0.256681	0.000000000000000E+000	0.256681	0.0000000E+000	0.000000000000000E+000	0.00111306
2	0	0	0	0	0	0	654.579	-0.700002	-0.70048	-1.56043	-0.926732	-0.926732	11	-0.257426	0	0.257426	0.000000000000000E+000	0.257426	0.0000000E+000	0.000000000000000E+000	0.00109305
2	0	0	0	0	0	0	656.279	-0.700002	-0.700442	-1.57049	-0.929397	-0.929397	11	-0.258166	0	0.258166	0.000000000000000E+000	0.258166	0.0000000E+000	0.000000000000000E+000	0.00110004
2	0	0	0	0	0	0	657.979	-0.700002	-0.700384	-1.56362	-0.932056	-0.932056	11	-0.258904	0	0.258904	0.000000000000000E+000	0.258904	0.0000000E+000	0.000000000000000E+000	0.00109513
2	0	0	0	0	0	0	659.679	-0.700002	-0.700461	-1.55448	-0.9347	-0.9347	11	-0.259639	0	0.259639	0.000000000000000E+000	0.259639	0.0000000E+000	0.000000000000000E+000	0.00108885
2	0	0	0	0	0	0	661.379	-0.700002	-0.700403	-1.53904	-0.937335	-0.937335	11	-0.260371	0	0.260371	0.000000000000000E+000	0.260371	0.0000000E+000	0.000000000000000E+000	0.00107795
2	0	0	0	0	0	0	663.079	-0.700002	-0.700461	-1.54926	-0.939964	-0.939964	11	-0.261101	0	0.261101	0.000000000000000E+000	0.261101	0.0000000E+000	0.000000000000000E+000	0.00108519
2	0	0	0	0	0	0	664.779	-0.700002	-0.700384	-1.55084	-0.942595	-0.942595	11	-0.261832	0	0.261832	0.000000000000000E+000	0.261832	0.0000000E+000	0.000000000000000E+000	0.00108618
2	0	0	0	0	0	0	666.479	-0.700002	-0.700403	-1.55916	-0.945229	-0.945229	11	-0.262564	0	0.262564	0.000000000000000E+000	0.262564	0.0000000E+000	0.000000000000000E+000	0.00109204
2	0	0	0	0	0	0	668.179	-0.700002	-0.700518	-1.60483	-0.947914	-0.947914	11	-0.263309	0	0.263309	0.000000000000000E+000	0.263309	0.0000000E+000	0.000000000000000E+000	0.00112421
2	0	0	0	0	0	0	669.879	-0.700002	-0.700518	-1.6293	-0.950662	-0.950662	11	-0.264073	0	0.264073	0.000000000000000E+000	0.264073	0.0000000E+000	0.000000000000000E+000	0.00114135
2	0	0	0	0	0	0	671.579	-0.700002	-0.700499	-1.63557	-0.95344	-0.95344	11	-0.264844	0	0.264844	0.000000000000000E+000	0.264844	0.0000000E+000	0.000000000000000E+000	0.00114572
2	0	0	0	0	0	0	673.279	-0.700002	-0.700499	-1.63781	-0.956219	-0.956219	11	-0.265616	0	0.265616	0.000000000000000E+000	0.265616	0.0000000E+000	0.000000000000000E+000	0.00114729
2	0	0	0	0	0	0	674.979	-0.700002	-0.700518	-1.64337	-0.95901	-0.95901	11	-0.266392	0	0.266392	0.000000000000000E+000	0.266392	0.0000000E+000	0.000000000000000E+000	0.00115121
2	0	0	0	0	0	0	676.679	-0.700002	-0.700442	-1.64634	-0.96181	-0.96181	11	-0.26717	0	0.26717	0.000000000000000E+000	0.26717	0.0000000E+000	0.000000000000000E+000	0.00115317
2	0	0	0	0	0	0	678.379	-0.700002	-0.700518	-1.64315	-0.964616	-0.964616	11	-0.267949	0	0.267949	0.000000000000000E+000	0.267949	0.0000000E+000	0.000000000000000E+000	0.00115106
2	0	0	0	0	0	0	680.079	-0.700002	-0.700499	-1.64729	-0.967423	-0.967423	11	-0.268729	0	0.268729	0.000000000000000E+000	0.268729	0.0000000E+000	0.000000000000000E+000	0.00115392
2	0	0	0	0	0	0	681.779	-0.700002	-0.700499	-1.66261	-0.970239	-0.970239	11	-0.269511	0	0.269511	0.000000000000000E+000	0.269511	0.0000000E+000	0.000000000000000E+000	0.00116466
2	0	0	0	0	0	0	683.479	-0.700002	-0.700442	-1.67881	-0.973071	-0.973071	11	-0.270298	0	0.270298	0.000000000000000E+000	0.270298	0.0000000E+000	0.000000000000000E+000	0.00117591
2	0	0	0	0	0	0	685.179	-0.700002	-0.700518	-1.68022	-0.975917	-0.975917	11	-0.271088	0	0.271088	0.000000000000000E+000	0.271088	0.0000000E+000	0.000000000000000E+000	0.00117702
2	0	0	0	0	0	0	686.879	-0.700002	-0.700575	-1.67722	-0.978768	-0.978768	11	-0.27188	0	0.27188	0.000000000000000E+000	0.27188	0.0000000E+000	0.000000000000000E+000	0.00117502
2	0	0	0	0	0	0	688.579	-0.700002	-0.700594	-1.67412	-0.981616	-0.981616	11	-0.272671	0	0.272671	0.000000000000000E+000	0.272671	0.0000000E+000	0.000000000000000E+000	0.00117288
2	0	0	0	0	0	0	690.279	-0.700002	-0.700575	-1.67299	-0.98446	-0.98446	11	-0.273461	0	0.273461	0.000000000000000E+000	0.273461	0.0000000E+000	0.000000000000000E+000	0.00117206
2	0	0	0	0	0	0	691.979	-0.700002	-0.700461	-1.67838	-0.987307	-0.987307	11	-0.274252	0	0.274252	0.000000000000000E+000	0.274252	0.0000000E+000	0.000000000000000E+000	0.00117564
2	0	0	0	0	0	0	693.679	-0.700002	-0.700461	-1.67118	-0.990159	-0.990159	11	-0.275044	0	0.275044	0.000000000000000E+000	0.275044	0.0000000E+000	0.000000000000000E+000	0.00117059
2	0	0	0	0	0	0	695.379	-0.700002	-0.700461	-1.75482	-0.993049	-0.993049	11	-0.275847	0	0.275847	0.000000000000000E+000	0.275847	0.0000000E+000	0.000000000000000E+000	0.00122918
2	0	0	0	0	0	0	697.079	-0.700002	-0.700442	-1.82868	-0.99611	-0.99611	11	-0.276697	0	0.276697	0.000000000000000E+000	0.276697	0.0000000E+000	0.000000000000000E+000	0.00128089
2	0	0	0	0	0	0	698.779	-0.700002	-0.700518	-1.85569	-0.99925	-0.99925	11	-0.277569	0	0.277569	0.000000000000000E+000	0.277569	0.0000000E+000	0.000000000000000E+000	0.00129994
2	0	0	0	0	0	0	700.479	-0.700002	-0.700384	-1.87305	-1.00243	-1.00243	11	-0.278453	0	0.278453	0.000000000000000E+000	0.278453	0.0000000E+000	0.000000000000000E+000	0.00131186
2	0	0	0	0	0	0	702.179	-0.700002	-0.700518	-1.88838	-1.00563	-1.00563	11	-0.279342	0	0.279342	0.000000000000000E+000	0.279342	0.0000000E+000	0.000000000000000E+000	0.00132285
2	0	0	0	0	0	0	703.879	-0.700002	-0.700556	-1.89459	-1.00884	-1.00884	11	-0.280234	0	0.280234	0.000000000000000E+000	0.280234	0.0000000E+000	0.000000000000000E+000	0.00132726
2	0	0	0	0	0	0	705.579	-0.700002	-0.700422	-1.89377	-1.01205	-1.01205	11	-0.281125	0	0.281125	0.000000000000000E+000	0.281125	0.0000000E+000	0.000000000000000E+000	0.00132644
2	0	0	0	0	0	0	707.279	-0.700002	-0.700461	-1.8775	-1.01526	-1.01526	11	-0.282016	0	0.282016	0.000000000000000E+000	0.282016	0.0000000E+000	0.000000000000000E+000	0.00131511
2	0	0	0	0	0	0	708.979	-0.700002	-0.700575	-1.88021	-1.01846	-1.01846	11	-0.282905	0	0.282905	0.000000000000000E+000	0.282905	0.0000000E+000	0.000000000000000E+000	0.00131723
2	0	0	0	0	0	0	710.679	-0.700002	-0.700403	-1.88771	-1.02166	-1.02166	11	-0.283795	0	0.283795	0.000000000000000E+000	0.283795	0.0000000E+000	0.000000000000000E+000	0.00132216
2	0	0	0	0	0	0	712.379	-0.700002	-0.700403	-1.88411	-1.02486	-1.02486	11	-0.284683	0	0.284683	0.000000000000000E+000	0.284683	0.0000000E+000	0.000000000000000E+000	0.00131964
2	0	0	0	0	0	0	714.079	-0.700002	-0.700537	-1.97627	-1.02813	-1.02813	11	-0.285591	0	0.285591	0.000000000000000E+000	0.285591	0.0000000E+000	0.000000000000000E+000	0.00138445
2	0	0	0	0	0	0	715.779	-0.700002	-0.70048	-2.04571	-1.03155	-1.03155	11	-0.286543	0	0.286543	0.000000000000000E+000	0.286543	0.0000000E+000	0.000000000000000E+000	0.00143298
2	0	0	0	0	0	0	717.479	-0.700002	-0.70048	-2.07406	-1.03505	-1.03505	11	-0.287515	0	0.287515	0.000000000000000E+000	0.287515	0.0000000E+000	0.000000000000000E+000	0.00145283
2	0	0	0	0	0	0	719.179	-0.700002	-0.700575	-2.07975	-1.03858	-1.03858	11	-0.288495	0	0.288495	0.000000000000000E+000	0.288495	0.0000000E+000	0.000000000000000E+000	0.00145702
2	0	0	0	0	0	0	720.879	-0.700002	-0.700575	-2.07867	-1.04212	-1.04212	11	-0.289477	0	0.289477	0.000000000000000E+000	0.289477	0.0000000E+000	0.000000000000000E+000	0.00145627
2	0	0	0	0	0	0	722.579	-0.700002	-0.700403	-2.09069	-1.04566	-1.04566	11	-0.290461	0	0.290461	0.000000000000000E+000	0.290461	0.0000000E+000	0.000000000000000E+000	0.00146433
2	0	0	0	0	0	0	724.279	-0.700002	-0.700518	-2.08512	-1.04921	-1.04921	11	-0.291447	0	0.291447	0.000000000000000E+000	0.291447	0.0000000E+000	0.000000000000000E+000	0.00146066
2	0	0	0	0	0	0	725.979	-0.700002	-0.700365	-2.08172	-1.05275	-1.05275	11	-0.292431	0	0.292431	0.000000000000000E+000	0.292431	0.0000000E+000	0.000000000000000E+000	0.00145797
2	0	0	0	0	0	0	727.679	-0.700002	-0.700537	-2.09318	-1.0563	-1.0563	11	-0.293416	0	0.293416	0.000000000000000E+000	0.293416	0.0000000E+000	0.000000000000000E+000	0.00146635
2	0	0	0	0	0	0	729.379	-0.700002	-0.70048	-2.08669	-1.05985	-1.05985	11	-0.294402	0	0.294402	0.000000000000000E+000	0.294402	0.0000000E+000	0.000000000000000E+000	0.00146168
2	0	0	0	0	0	0	731.079	-0.700002	-0.700556	-2.08836	-1.0634	-1.0634	11	-0.295388	0	0.295388	0.000000000000000E+000	0.295388	0.0000000E+000	0.000000000000000E+000	0.00146302
2	0	0	0	0	0	0	732.779	-0.700002	-0.700461	-2.12704	-1.06695	-1.06695	11	-0.296375	0	0.296375	0.000000000000000E+000	0.296375	0.0000000E+000	0.000000000000000E+000	0.00148991
2	0	0	0	0	0	0	734.479	-0.700002	-0.700575	-2.4557	-1.07095	-1.07095	11	-0.297487	0	0.297487	0.000000000000000E+000	0.297487	0.0000000E+000	0.000000000000000E+000	0.0017204
2	0	0	0	0	0	0	736.179	-0.700002	-0.700461	-2.51518	-1.07519	-1.07519	11	-0.298664	0	0.298664	0.000000000000000E+000	0.298664	0.0000000E+000	0.000000000000000E+000	0.00176179
2	0	0	0	0	0	0	737.879	-0.700002	-0.700422	-2.53423	-1.07948	-1.07948	11	-0.299857	0	0.299857	0.000000000000000E+000	0.299857	0.0000000E+000	0.000000000000000E+000	0.00177503
2	0	0	0	0	0	0	739.579	-0.700002	-0.700556	-2.54515	-1.0838	-1.0838	11	-0.301056	0	0.301056	0.000000000000000E+000	0.301056	0.0000000E+000	0.000000000000000E+000	0.00178302
2	0	0	0	0	0	0	741.279	-0.700002	-0.700537	-2.55483	-1.08814	-1.08814	11	-0.302262	0	0.302262	0.000000000000000E+000	0.302262	0.0000000E+000	0.000000000000000E+000	0.00178975
2	0	0	0	0	0	0	742.979	-0.700002	-0.700384	-2.55617	-1.09249	-1.09249	11	-0.303468	0	0.303468	0.000000000000000E+000	0.303468	0.0000000E+000	0.000000000000000E+000	0.0017903
2	0	0	0	0	0	0	744.679	-0.700002	-0.700594	-2.55728	-1.09683	-1.09683	11	-0.304676	0	0.304676	0.000000000000000E+000	0.304676	0.0000000E+000	0.000000000000000E+000	0.00179161
2	0	0	0	0	0	0	746.379	-0.700002	-0.700728	-2.55298	-1.10118	-1.10118	11	-0.305883	0	0.305883	0.000000000000000E+000	0.305883	0.0000000E+000	0.000000000000000E+000	0.00178894
2	0	0	0	0	0	0	748.079	-0.700002	-0.700461	-2.56213	-1.10553	-1.10553	11	-0.307091	0	0.307091	0.000000000000000E+000	0.307091	0.0000000E+000	0.000000000000000E+000	0.00179467
2	0	0	0	0	0	0	749.779	-0.700002	-0.700422	-2.56145	-1.10989	-1.10989	11	-0.308302	0	0.308302	0.000000000000000E+000	0.308302	0.0000000E+000	0.000000000000000E+000	0.00179409
2	0	0	0	0	0	0	751.479	-0.700002	-0.700671	-2.56619	-1.11425	-1.11425	11	-0.309513	0	0.309513	0.000000000000000E+000	0.309513	0.0000000E+000	0.000000000000000E+000	0.00179806
2	0	0	0	0	0	0	753.179	-0.700002	-0.700499	-2.56664	-1.11861	-1.11861	11	-0.310724	0	0.310724	0.000000000000000E+000	0.310724	0.0000000E+000	0.000000000000000E+000	0.00179793
2	0	0	0	0	0	0	754.879	-0.700002	-0.700613	-2.56633	-1.12297	-1.12297	11	-0.311937	0	0.311937	0.000000000000000E+000	0.311937	0.0000000E+000	0.000000000000000E+000	0.001798
2	0	0	0	0	0	0	756.579	-0.700002	-0.70048	-2.56455	-1.12734	-1.12734	11	-0.313149	0	0.313149	0.000000000000000E+000	0.313149	0.0000000E+000	0.000000000000000E+000	0.00179641
2	0	0	0	0	0	0	758.279	-0.700002	-0.700632	-2.56575	-1.1317	-1.1317	11	-0.31436	0	0.31436	0.000000000000000E+000	0.31436	0.0000000E+000	0.000000000000000E+000	0.00179765
2	0	0	0	0	0	0	759.979	-0.700002	-0.700594	-2.56096	-1.13606	-1.13606	11	-0.315571	0	0.315571	0.000000000000000E+000	0.315571	0.0000000E+000	0.000000000000000E+000	0.00179419
2	0	0	0	0	0	0	761.679	-0.700002	-0.700652	-2.55707	-1.1404	-1.1404	11	-0.316779	0	0.316779	0.000000000000000E+000	0.316779	0.0000000E+000	0.000000000000000E+000	0.00179161
2	0	0	0	0	0	0	763.379	-0.700002	-0.700632	-2.55252	-1.14475	-1.14475	11	-0.317986	0	0.317986	0.000000000000000E+000	0.317986	0.0000000E+000	0.000000000000000E+000	0.00178838
2	0	0	0	0	0	0	765.079	-0.700002	-0.700442	-2.55867	-1.14909	-1.14909	11	-0.319193	0	0.319193	0.000000000000000E+000	0.319193	0.0000000E+000	0.000000000000000E+000	0.0017922
2	0	0	0	0	0	0	766.779	-0.700002	-0.700518	-2.59457	-1.15345	-1.15345	11	-0.320402	0	0.320402	0.000000000000000E+000	0.320402	0.0000000E+000	0.000000000000000E+000	0.00181754
2	0	0	0	0	0	0	768.479	-0.700002	-0.700594	-2.73576	-1.15804	-1.15804	11	-0.321678	0	0.321678	0.000000000000000E+000	0.321678	0.0000000E+000	0.000000000000000E+000	0.00191666
2	0	0	0	0	0	0	770.179	-0.700002	-0.700461	-2.75705	-1.16272	-1.16272	11	-0.322976	0	0.322976	0.000000000000000E+000	0.322976	0.0000000E+000	0.000000000000000E+000	0.0019312
2	0	0	0	0	0	0	771.879	-0.700002	-0.700442	-2.76228	-1.16741	-1.16741	11	-0.32428	0	0.32428	0.000000000000000E+000	0.32428	0.0000000E+000	0.000000000000000E+000	0.00193481
2	0	0	0	0	0	0	773.579	-0.700002	-0.700442	-2.77521	-1.17212	-1.17212	11	-0.325588	0	0.325588	0.000000000000000E+000	0.325588	0.0000000E+000	0.000000000000000E+000	0.00194387
2	0	0	0	0	0	0	775.279	-0.700002	-0.700537	-2.77291	-1.17683	-1.17683	11	-0.326898	0	0.326898	0.000000000000000E+000	0.326898	0.0000000E+000	0.000000000000000E+000	0.00194253
2	0	0	0	0	0	0	776.979	-0.700002	-0.700499	-2.77711	-1.18155	-1.18155	11	-0.328208	0	0.328208	0.000000000000000E+000	0.328208	0.0000000E+000	0.000000000000000E+000	0.00194536
2	0	0	0	0	0	0	778.679	-0.700002	-0.700575	-2.77657	-1.18627	-1.18627	11	-0.329519	0	0.329519	0.000000000000000E+000	0.329519	0.0000000E+000	0.000000000000000E+000	0.0019452
2	0	0	0	0	0	0	780.379	-0.700002	-0.700575	-2.77395	-1.19099	-1.19099	11	-0.33083	0	0.33083	0.000000000000000E+000	0.33083	0.0000000E+000	0.000000000000000E+000	0.00194336
2	0	0	0	0	0	0	782.079	-0.700002	-0.700422	-2.77758	-1.19571	-1.19571	11	-0.332142	0	0.332142	0.000000000000000E+000	0.332142	0.0000000E+000	0.000000000000000E+000	0.00194548
2	0	0	0	0	0	0	783.779	-0.700002	-0.700403	-2.7767	-1.20043	-1.20043	11	-0.333452	0	0.333452	0.000000000000000E+000	0.333452	0.0000000E+000	0.000000000000000E+000	0.00194481
2	0	0	0	0	0	0	785.479	-0.700002	-0.700652	-2.77513	-1.20515	-1.20515	11	-0.334764	0	0.334764	0.000000000000000E+000	0.334764	0.0000000E+000	0.000000000000000E+000	0.0019444
2	0	0	0	0	0	0	787.179	-0.700002	-0.700403	-2.78367	-1.20987	-1.20987	11	-0.336076	0	0.336076	0.000000000000000E+000	0.336076	0.0000000E+000	0.000000000000000E+000	0.00194969
2	0	0	0	0	0	0	788.879	-0.700002	-0.700499	-2.80206	-1.21463	-1.21463	11	-0.337397	0	0.337397	0.000000000000000E+000	0.337397	0.0000000E+000	0.000000000000000E+000	0.00196284
2	0	0	0	0	0	0	790.579	-0.700002	-0.700728	-2.81311	-1.21941	-1.21941	11	-0.338724	0	0.338724	0.000000000000000E+000	0.338724	0.0000000E+000	0.000000000000000E+000	0.00197122
2	0	0	0	0	0	0	792.279	-0.700002	-0.700499	-2.81094	-1.22419	-1.22419	11	-0.340052	0	0.340052	0.000000000000000E+000	0.340052	0.0000000E+000	0.000000000000000E+000	0.00196906
2	0	0	0	0	0	0	793.979	-0.700002	-0.700728	-2.81034	-1.22897	-1.22897	11	-0.34138	0	0.34138	0.000000000000000E+000	0.34138	0.0000000E+000	0.000000000000000E+000	0.00196928
2	0	0	0	0	0	0	795.679	-0.700002	-0.700384	-2.81244	-1.23375	-1.23375	11	-0.342707	0	0.342707	0.000000000000000E+000	0.342707	0.0000000E+000	0.000000000000000E+000	0.00196979
2	0	0	0	0	0	0	797.379	-0.700002	-0.700575	-2.80807	-1.23852	-1.23852	11	-0.344034	0	0.344034	0.000000000000000E+000	0.344034	0.0000000E+000	0.000000000000000E+000	0.00196727
2	0	0	0	0	0	0	799.079	-0.700002	-0.70048	-2.81199	-1.2433	-1.2433	11	-0.345362	0	0.345362	0.000000000000000E+000	0.345362	0.0000000E+000	0.000000000000000E+000	0.00196974
2	0	0	0	0	0	0	800.779	-0.700002	-0.700289	-2.81141	-1.24808	-1.24808	11	-0.34669	0	0.34669	0.000000000000000E+000	0.34669	0.0000000E+000	0.000000000000000E+000	0.0019688
2	0	0	0	0	0	0	802.479	-0.700002	-0.700308	-3.09495	-1.25305	-1.25305	11	-0.348069	0	0.348069	0.000000000000000E+000	0.348069	0.0000000E+000	0.000000000000000E+000	0.00216742
2	0	0	0	0	0	0	804.179	-0.700002	-0.700537	-3.13391	-1.25835	-1.25835	11	-0.349541	0	0.349541	0.000000000000000E+000	0.349541	0.0000000E+000	0.000000000000000E+000	0.00219542
2	0	0	0	0	0	0	805.879	-0.700002	-0.700499	-3.15557	-1.2637	-1.2637	11	-0.351027	0	0.351027	0.000000000000000E+000	0.351027	0.0000000E+000	0.000000000000000E+000	0.00221047
2	0	0	0	0	0	0	807.579	-0.700002	-0.700422	-3.16275	-1.26907	-1.26907	11	-0.352519	0	0.352519	0.000000000000000E+000	0.352519	0.0000000E+000	0.000000000000000E+000	0.00221526
2	0	0	0	0	0	0	809.279	-0.700002	-0.700594	-3.165	-1.27445	-1.27445	11	-0.354013	0	0.354013	0.000000000000000E+000	0.354013	0.0000000E+000	0.000000000000000E+000	0.00221738
2	0	0	0	0	0	0	810.979	-0.700002	-0.700652	-3.1689	-1.27983	-1.27983	11	-0.355509	0	0.355509	0.000000000000000E+000	0.355509	0.0000000E+000	0.000000000000000E+000	0.00222029
2	0	0	0	0	0	0	812.679	-0.700002	-0.700575	-3.17347	-1.28522	-1.28522	11	-0.357006	0	0.357006	0.000000000000000E+000	0.357006	0.0000000E+000	0.000000000000000E+000	0.00222325
2	0	0	0	0	0	0	814.379	-0.700002	-0.700537	-3.17298	-1.29062	-1.29062	11	-0.358505	0	0.358505	0.000000000000000E+000	0.358505	0.0000000E+000	0.000000000000000E+000	0.00222279
2	0	0	0	0	0	0	816.079	-0.700002	-0.700556	-3.17	-1.29601	-1.29601	11	-0.360002	0	0.360002	0.000000000000000E+000	0.360002	0.0000000E+000	0.000000000000000E+000	0.00222076
2	0	0	0	0	0	0	817.779	-0.700002	-0.700556	-3.15727	-1.30139	-1.30139	11	-0.361496	0	0.361496	0.000000000000000E+000	0.361496	0.0000000E+000	0.000000000000000E+000	0.00221185
2	0	0	0	0	0	0	819.479	-0.700002	-0.700575	-3.1538	-1.30675	-1.30675	11	-0.362986	0	0.362986	0.000000000000000E+000	0.362986	0.0000000E+000	0.000000000000000E+000	0.00220948
2	0	0	0	0	0	0	821.179	-0.700002	-0.700594	-3.15256	-1.31211	-1.31211	11	-0.364475	0	0.364475	0.000000000000000E+000	0.364475	0.0000000E+000	0.000000000000000E+000	0.00220866
2	0	0	0	0	0	0	822.879	-0.700002	-0.700575	-3.14618	-1.31746	-1.31746	11	-0.365962	0	0.365962	0.000000000000000E+000	0.365962	0.0000000E+000	0.000000000000000E+000	0.00220413
2	0	0	0	0	0	0	824.579	-0.700002	-0.700518	-3.14396	-1.32281	-1.32281	11	-0.367448	0	0.367448	0.000000000000000E+000	0.367448	0.0000000E+000	0.000000000000000E+000	0.0022024
2	0	0	0	0	0	0	826.279	-0.700002	-0.700422	-3.14238	-1.32816	-1.32816	11	-0.368933	0	0.368933	0.000000000000000E+000	0.368933	0.0000000E+000	0.000000000000000E+000	0.00220099
2	0	0	0	0	0	0	827.979	-0.700002	-0.700613	-3.13841	-1.3335	-1.3335	11	-0.370416	0	0.370416	0.000000000000000E+000	0.370416	0.0000000E+000	0.000000000000000E+000	0.00219881
2	0	0	0	0	0	0	829.679	-0.700002	-0.700403	-3.13598	-1.33883	-1.33883	11	-0.371898	0	0.371898	0.000000000000000E+000	0.371898	0.0000000E+000	0.000000000000000E+000	0.00219645
2	0	0	0	0	0	0	831.379	-0.700002	-0.700499	-3.13326	-1.34416	-1.34416	11	-0.373378	0	0.373378	0.000000000000000E+000	0.373378	0.0000000E+000	0.000000000000000E+000	0.00219485
2	0	0	0	0	0	0	833.079	-0.700002	-0.700499	-3.12662	-1.34948	-1.34948	11	-0.374856	0	0.374856	0.000000000000000E+000	0.374856	0.0000000E+000	0.000000000000000E+000	0.00219019
2	0	0	0	0	0	0	834.779	-0.700002	-0.700613	-3.12846	-1.3548	-1.3548	11	-0.376333	0	0.376333	0.000000000000000E+000	0.376333	0.0000000E+000	0.000000000000000E+000	0.00219184
2	0	0	0	0	0	0	836.479	-0.700002	-0.700499	-3.12122	-1.36011	-1.36011	11	-0.377808	0	0.377808	0.000000000000000E+000	0.377808	0.0000000E+000	0.000000000000000E+000	0.00218641
2	0	0	0	0	0	0	838.179	-0.700002	-0.700365	-3.11468	-1.36541	-1.36541	11	-0.379282	0	0.379282	0.000000000000000E+000	0.379282	0.0000000E+000	0.000000000000000E+000	0.00218141
2	0	0	0	0	0	0	839.879	-0.700002	-0.700289	-3.11617	-1.37071	-1.37071	11	-0.380753	0	0.380753	0.000000000000000E+000	0.380753	0.0000000E+000	0.000000000000000E+000	0.00218222
2	0	0	0	0	0	0	841.579	-0.700002	-0.700461	-3.11132	-1.376	-1.376	11	-0.382223	0	0.382223	0.000000000000000E+000	0.382223	0.0000000E+000	0.000000000000000E+000	0.00217936
2	0	0	0	0	0	0	843.279	-0.700002	-0.700518	-3.10543	-1.38129	-1.38129	11	-0.383691	0	0.383691	0.000000000000000E+000	0.383691	0.0000000E+000	0.000000000000000E+000	0.00217541
2	0	0	0	0	0	0	844.979	-0.700002	-0.70069	-3.1089	-1.38657	-1.38657	11	-0.385157	0	0.385157	0.000000000000000E+000	0.385157	0.0000000E+000	0.000000000000000E+000	0.00217837
2	0	0	0	0	0	0	846.679	-0.700002	-0.700556	-3.10258	-1.39184	-1.39184	11	-0.386623	0	0.386623	0.000000000000000E+000	0.386623	0.0000000E+000	0.000000000000000E+000	0.00217353
2	0	0	0	0	0	0	847.957	-0.700002	-0.70048	-3.0969	-1.3958	-1.3958	11	-0.387724	0	0.387724	0.000000000000000E+000	0.387724	0.0000000E+000	0.000000000000000E+000	0.00216931