File: ZnPVAGAECH_1 03-20-22-ZnGAPVA ECH-1600 rpm at -1V vs RHE RDE1_04_CA_C05.mpt
EC-Lab ASCII FILE
Nb header lines : 65

Chronoamperometry / Chronocoulometry

Run on channel : 5 (SN 6729)
User :
CE vs. WE compliance from -10 V to 10 V
Electrode connection : standard
Potential control : Ewe
Ewe ctrl range : min = -2.50 V, max = 2.50 V
Safety Limits :
	Do not start on E overload
Acquisition started on : 03/20/2022 14:08:37.437
Technique started on : 03/20/2022 14:14:13.396
Loaded Setting File :  NONE
Saved on :
	File : 03-20-22-ZnGAPVA  ECH-1600 rpm at -0_8V vs RHE RDE1_04_CA_C05.mpr
	Directory : \\research-scb.egr.msu.edu\research-scb\Mindy\Koutecky Levich\Zn GA PVA 001\ECH\03-20-22\
	Host : 35.9.136.210
Device : VSP (SN 0012)
Address : 35.9.137.65
EC-Lab for windows v11.43 (software)
Internet server v11.40 (firmware)
Command interpretor v11.40 (firmware)
Electrode material :
Initial state :
Electrolyte :
Comments :
Electrode surface area : 0.196 cm²
Characteristic mass : 0.001 g
Equivalent Weight : 0.000 g/eq.
Density : 0.000 g/cm3
Volume (V) : 0.001 cm³
Cycle Definition : Charge/Discharge alternance
Ei (V)              -0.500
vs.                 Ref
ti (h:m:s)          0:30:0.0000
Imax                pass
unit Imax           mA
Imin                pass
unit Imin           mA
dQM                 0.000
unit dQM            mA.h
record              <I>
dI                  5.000
unit dI             µA
dQ                  0.000
unit dQ             mA.h
dt (s)              0.1000
dta (s)             0.1000
E range min (V)     -2.500
E range max (V)     2.500
I Range             Auto
I Range min         Unset
I Range max         Unset
I Range init        Unset
Bandwidth           5
goto Ns'            0
nc cycles           0

Modify on : 03/20/2022 14:14
Ei (V)              -1.000

mode	ox/red	error	control changes	Ns changes	counter inc.	Ns	time/s	control/V	Ewe/V	<I>/mA	dQ/C	(Q-Qo)/C	I Range	Q charge/discharge/mA.h	half cycle	Q discharge/mA.h	Q charge/mA.h	Capacity/mA.h	Efficiency/%	cycle number	P/W
2	0	0	1	0	0	0	335.959	-1.00004	-1.00058	-3.66572	-0.000366572	-0.000366572	11	-0.000101825	0	0.000101825	0.000000000000000E+000	0.000101825	0.0000000E+000	0.000000000000000E+000	0.00366783
2	0	0	1	0	0	0	337.359	-1.00004	-1.00042	-3.82739	-0.00571084	-0.00571084	11	-0.00158634	0	0.00158634	0.000000000000000E+000	0.00158634	0.0000000E+000	0.000000000000000E+000	0.00382901
2	0	0	1	0	0	0	338.759	-1.00004	-1.00058	-3.82558	-0.0110662	-0.0110662	11	-0.00307395	0	0.00307395	0.000000000000000E+000	0.00307395	0.0000000E+000	0.000000000000000E+000	0.00382778
2	0	0	1	0	0	0	340.159	-1.00004	-1.00031	-3.80877	-0.0164074	-0.0164074	11	-0.00455762	0	0.00455762	0.000000000000000E+000	0.00455762	0.0000000E+000	0.000000000000000E+000	0.00380995
2	0	0	1	0	0	0	341.559	-1.00004	-1.00046	-3.822	-0.0217435	-0.0217435	11	-0.00603987	0	0.00603987	0.000000000000000E+000	0.00603987	0.0000000E+000	0.000000000000000E+000	0.00382376
2	0	0	1	0	0	0	342.959	-1.00004	-1.00038	-3.835	-0.0271029	-0.0271029	11	-0.00752859	0	0.00752859	0.000000000000000E+000	0.00752859	0.0000000E+000	0.000000000000000E+000	0.00383647
2	0	0	1	0	0	0	344.359	-1.00004	-1.00031	-3.7903	-0.0324252	-0.0324252	11	-0.00900699	0	0.00900699	0.000000000000000E+000	0.00900699	0.0000000E+000	0.000000000000000E+000	0.00379147
2	0	0	1	0	0	0	345.759	-1.00004	-1.00033	-3.80593	-0.0377495	-0.0377495	11	-0.010486	0	0.010486	0.000000000000000E+000	0.010486	0.0000000E+000	0.000000000000000E+000	0.00380717
2	0	0	1	0	0	0	347.159	-1.00004	-1.00038	-3.77607	-0.0430501	-0.0430501	11	-0.0119584	0	0.0119584	0.000000000000000E+000	0.0119584	0.0000000E+000	0.000000000000000E+000	0.00377752
2	0	0	1	0	0	0	348.559	-1.00004	-1.00027	-3.78209	-0.0483398	-0.0483398	11	-0.0134277	0	0.0134277	0.000000000000000E+000	0.0134277	0.0000000E+000	0.000000000000000E+000	0.00378311
2	0	0	1	0	0	0	349.959	-1.00004	-1.00042	-3.79601	-0.0536411	-0.0536411	11	-0.0149003	0	0.0149003	0.000000000000000E+000	0.0149003	0.0000000E+000	0.000000000000000E+000	0.00379761
2	0	0	1	0	0	0	351.359	-1.00004	-1.00048	-3.77952	-0.0589415	-0.0589415	11	-0.0163726	0	0.0163726	0.000000000000000E+000	0.0163726	0.0000000E+000	0.000000000000000E+000	0.00378133
2	0	0	1	0	0	0	352.759	-1.00004	-1.0004	-3.77524	-0.0642262	-0.0642262	11	-0.0178406	0	0.0178406	0.000000000000000E+000	0.0178406	0.0000000E+000	0.000000000000000E+000	0.00377676
2	0	0	1	0	0	0	354.159	-1.00004	-1.00035	-3.74653	-0.0694918	-0.0694918	11	-0.0193033	0	0.0193033	0.000000000000000E+000	0.0193033	0.0000000E+000	0.000000000000000E+000	0.00374783
2	0	0	1	0	0	0	355.559	-1.00004	-1.00058	-3.7533	-0.0747449	-0.0747449	11	-0.0207625	0	0.0207625	0.000000000000000E+000	0.0207625	0.0000000E+000	0.000000000000000E+000	0.00375546
2	0	0	1	0	0	0	356.959	-1.00004	-1.00048	-3.75545	-0.0800064	-0.0800064	11	-0.022224	0	0.022224	0.000000000000000E+000	0.022224	0.0000000E+000	0.000000000000000E+000	0.00375725
2	0	0	1	0	0	0	358.359	-1.00004	-1.00027	-3.75583	-0.0852594	-0.0852594	11	-0.0236832	0	0.0236832	0.000000000000000E+000	0.0236832	0.0000000E+000	0.000000000000000E+000	0.00375684
2	0	0	1	0	0	0	359.759	-1.00004	-1.00027	-3.76762	-0.0905234	-0.0905234	11	-0.0251454	0	0.0251454	0.000000000000000E+000	0.0251454	0.0000000E+000	0.000000000000000E+000	0.00376864
2	0	0	1	0	0	0	361.159	-1.00004	-1.00035	-3.73644	-0.0957721	-0.0957721	11	-0.0266034	0	0.0266034	0.000000000000000E+000	0.0266034	0.0000000E+000	0.000000000000000E+000	0.00373773
2	0	0	1	0	0	0	362.559	-1.00004	-1.0005	-3.73732	-0.101013	-0.101013	11	-0.0280592	0	0.0280592	0.000000000000000E+000	0.0280592	0.0000000E+000	0.000000000000000E+000	0.00373919
2	0	0	1	0	0	0	363.959	-1.00004	-1.00046	-3.7371	-0.106243	-0.106243	11	-0.0295119	0	0.0295119	0.000000000000000E+000	0.0295119	0.0000000E+000	0.000000000000000E+000	0.00373882
2	0	0	1	0	0	0	365.359	-1.00004	-1.00037	-3.74113	-0.111491	-0.111491	11	-0.0309696	0	0.0309696	0.000000000000000E+000	0.0309696	0.0000000E+000	0.000000000000000E+000	0.0037425
2	0	0	1	0	0	0	366.759	-1.00004	-1.00029	-3.74237	-0.116726	-0.116726	11	-0.0324239	0	0.0324239	0.000000000000000E+000	0.0324239	0.0000000E+000	0.000000000000000E+000	0.00374346
2	0	0	1	0	0	0	368.159	-1.00004	-1.00058	-3.7383	-0.121965	-0.121965	11	-0.0338791	0	0.0338791	0.000000000000000E+000	0.0338791	0.0000000E+000	0.000000000000000E+000	0.00374045
2	0	0	1	0	0	0	369.559	-1.00004	-1.00044	-3.77495	-0.127219	-0.127219	11	-0.0353385	0	0.0353385	0.000000000000000E+000	0.0353385	0.0000000E+000	0.000000000000000E+000	0.00377662
2	0	0	1	0	0	0	370.959	-1.00004	-1.00037	-3.78123	-0.13252	-0.13252	11	-0.0368111	0	0.0368111	0.000000000000000E+000	0.0368111	0.0000000E+000	0.000000000000000E+000	0.00378262
2	0	0	1	0	0	0	372.359	-1.00004	-1.00042	-3.78259	-0.137822	-0.137822	11	-0.0382838	0	0.0382838	0.000000000000000E+000	0.0382838	0.0000000E+000	0.000000000000000E+000	0.00378419
2	0	0	1	0	0	0	373.759	-1.00004	-1.00044	-3.88833	-0.143162	-0.143162	11	-0.0397671	0	0.0397671	0.000000000000000E+000	0.0397671	0.0000000E+000	0.000000000000000E+000	0.00389005
2	0	0	1	0	0	0	375.159	-1.00004	-1.00052	-3.87044	-0.148589	-0.148589	11	-0.0412746	0	0.0412746	0.000000000000000E+000	0.0412746	0.0000000E+000	0.000000000000000E+000	0.00387245
2	0	0	1	0	0	0	376.559	-1.00004	-1.00048	-3.87407	-0.154026	-0.154026	11	-0.042785	0	0.042785	0.000000000000000E+000	0.042785	0.0000000E+000	0.000000000000000E+000	0.00387593
2	0	0	1	0	0	0	377.959	-1.00004	-1.00035	-3.86061	-0.159451	-0.159451	11	-0.0442919	0	0.0442919	0.000000000000000E+000	0.0442919	0.0000000E+000	0.000000000000000E+000	0.00386195
2	0	0	1	0	0	0	379.359	-1.00004	-1.00048	-3.87459	-0.164874	-0.164874	11	-0.0457982	0	0.0457982	0.000000000000000E+000	0.0457982	0.0000000E+000	0.000000000000000E+000	0.00387645
2	0	0	1	0	0	0	380.759	-1.00004	-1.00031	-3.88909	-0.170297	-0.170297	11	-0.0473049	0	0.0473049	0.000000000000000E+000	0.0473049	0.0000000E+000	0.000000000000000E+000	0.00389029
2	0	0	1	0	0	0	382.159	-1.00004	-1.00033	-3.88468	-0.175735	-0.175735	11	-0.0488152	0	0.0488152	0.000000000000000E+000	0.0488152	0.0000000E+000	0.000000000000000E+000	0.00388595
2	0	0	1	0	0	0	383.559	-1.00004	-1.00061	-3.87288	-0.181155	-0.181155	11	-0.0503209	0	0.0503209	0.000000000000000E+000	0.0503209	0.0000000E+000	0.000000000000000E+000	0.00387526
2	0	0	1	0	0	0	384.959	-1.00004	-1.0005	-3.86721	-0.186565	-0.186565	11	-0.0518235	0	0.0518235	0.000000000000000E+000	0.0518235	0.0000000E+000	0.000000000000000E+000	0.00386914
2	0	0	1	0	0	0	386.359	-1.00004	-1.00054	-3.87119	-0.191967	-0.191967	11	-0.0533243	0	0.0533243	0.000000000000000E+000	0.0533243	0.0000000E+000	0.000000000000000E+000	0.00387327
2	0	0	1	0	0	0	387.759	-1.00004	-1.00059	-3.86971	-0.197391	-0.197391	11	-0.054831	0	0.054831	0.000000000000000E+000	0.054831	0.0000000E+000	0.000000000000000E+000	0.00387201
2	0	0	1	0	0	0	389.159	-1.00004	-1.00067	-3.89009	-0.202826	-0.202826	11	-0.0563405	0	0.0563405	0.000000000000000E+000	0.0563405	0.0000000E+000	0.000000000000000E+000	0.0038927
2	0	0	1	0	0	0	390.559	-1.00004	-1.0004	-3.86924	-0.208253	-0.208253	11	-0.0578481	0	0.0578481	0.000000000000000E+000	0.0578481	0.0000000E+000	0.000000000000000E+000	0.00387081
2	0	0	1	0	0	0	391.959	-1.00004	-1.00067	-3.90998	-0.213721	-0.213721	11	-0.059367	0	0.059367	0.000000000000000E+000	0.059367	0.0000000E+000	0.000000000000000E+000	0.0039126
2	0	0	1	0	0	0	393.359	-1.00004	-1.00052	-3.90233	-0.219192	-0.219192	11	-0.0608866	0	0.0608866	0.000000000000000E+000	0.0608866	0.0000000E+000	0.000000000000000E+000	0.00390435
2	0	0	1	0	0	0	394.759	-1.00004	-1.00035	-3.8962	-0.224653	-0.224653	11	-0.0624036	0	0.0624036	0.000000000000000E+000	0.0624036	0.0000000E+000	0.000000000000000E+000	0.00389754
2	0	0	1	0	0	0	396.159	-1.00004	-1.00048	-3.90817	-0.230118	-0.230118	11	-0.0639216	0	0.0639216	0.000000000000000E+000	0.0639216	0.0000000E+000	0.000000000000000E+000	0.00391005
2	0	0	1	0	0	0	397.559	-1.00004	-1.00042	-3.90685	-0.235594	-0.235594	11	-0.0654427	0	0.0654427	0.000000000000000E+000	0.0654427	0.0000000E+000	0.000000000000000E+000	0.0039085
2	0	0	1	0	0	0	398.959	-1.00004	-1.00042	-3.90938	-0.241063	-0.241063	11	-0.0669619	0	0.0669619	0.000000000000000E+000	0.0669619	0.0000000E+000	0.000000000000000E+000	0.00391103
2	0	0	1	0	0	0	400.359	-1.00004	-1.00019	-3.90517	-0.246524	-0.246524	11	-0.0684788	0	0.0684788	0.000000000000000E+000	0.0684788	0.0000000E+000	0.000000000000000E+000	0.00390592
2	0	0	1	0	0	0	401.759	-1.00004	-1.00035	-3.90461	-0.251991	-0.251991	11	-0.0699974	0	0.0699974	0.000000000000000E+000	0.0699974	0.0000000E+000	0.000000000000000E+000	0.00390597
2	0	0	1	0	0	0	403.159	-1.00004	-1.00054	-3.90113	-0.257447	-0.257447	11	-0.071513	0	0.071513	0.000000000000000E+000	0.071513	0.0000000E+000	0.000000000000000E+000	0.00390322
2	0	0	1	0	0	0	404.559	-1.00004	-1.00046	-3.87642	-0.262902	-0.262902	11	-0.0730283	0	0.0730283	0.000000000000000E+000	0.0730283	0.0000000E+000	0.000000000000000E+000	0.0038782
2	0	0	1	0	0	0	405.959	-1.00004	-1.00035	-3.89092	-0.268342	-0.268342	11	-0.0745396	0	0.0745396	0.000000000000000E+000	0.0745396	0.0000000E+000	0.000000000000000E+000	0.00389227
2	0	0	1	0	0	0	407.359	-1.00004	-1.00029	-3.86547	-0.273773	-0.273773	11	-0.076048	0	0.076048	0.000000000000000E+000	0.076048	0.0000000E+000	0.000000000000000E+000	0.00386659
2	0	0	1	0	0	0	408.759	-1.00004	-1.00046	-3.87098	-0.279199	-0.279199	11	-0.0775551	0	0.0775551	0.000000000000000E+000	0.0775551	0.0000000E+000	0.000000000000000E+000	0.00387277
2	0	0	1	0	0	0	410.159	-1.00004	-1.00033	-3.89163	-0.284644	-0.284644	11	-0.0790678	0	0.0790678	0.000000000000000E+000	0.0790678	0.0000000E+000	0.000000000000000E+000	0.00389291
2	0	0	1	0	0	0	411.559	-1.00004	-1.00038	-3.91349	-0.290109	-0.290109	11	-0.0805858	0	0.0805858	0.000000000000000E+000	0.0805858	0.0000000E+000	0.000000000000000E+000	0.00391499
2	0	0	1	0	0	0	412.959	-1.00004	-1.0004	-3.88955	-0.295572	-0.295572	11	-0.0821033	0	0.0821033	0.000000000000000E+000	0.0821033	0.0000000E+000	0.000000000000000E+000	0.00389112
2	0	0	1	0	0	0	414.359	-1.00004	-1.00044	-3.08785	-0.300336	-0.300336	11	-0.0834268	0	0.0834268	0.000000000000000E+000	0.0834268	0.0000000E+000	0.000000000000000E+000	0.00308921
2	0	0	1	0	0	0	415.759	-1.00004	-1.00048	-3.18519	-0.304764	-0.304764	11	-0.0846567	0	0.0846567	0.000000000000000E+000	0.0846567	0.0000000E+000	0.000000000000000E+000	0.00318672
2	0	0	1	0	0	0	417.159	-1.00004	-1.00046	-3.18883	-0.309211	-0.309211	11	-0.0858921	0	0.0858921	0.000000000000000E+000	0.0858921	0.0000000E+000	0.000000000000000E+000	0.0031903
2	0	0	1	0	0	0	418.559	-1.00004	-1.00052	-3.16327	-0.313647	-0.313647	11	-0.0871242	0	0.0871242	0.000000000000000E+000	0.0871242	0.0000000E+000	0.000000000000000E+000	0.0031649
2	0	0	1	0	0	0	419.959	-1.00004	-1.00037	-3.16185	-0.318073	-0.318073	11	-0.0883537	0	0.0883537	0.000000000000000E+000	0.0883537	0.0000000E+000	0.000000000000000E+000	0.00316301
2	0	0	1	0	0	0	421.359	-1.00004	-1.00031	-3.15872	-0.322489	-0.322489	11	-0.0895802	0	0.0895802	0.000000000000000E+000	0.0895802	0.0000000E+000	0.000000000000000E+000	0.0031597
2	0	0	1	0	0	0	422.759	-1.00004	-1.00058	-3.15719	-0.32691	-0.32691	11	-0.0908084	0	0.0908084	0.000000000000000E+000	0.0908084	0.0000000E+000	0.000000000000000E+000	0.00315901
2	0	0	1	0	0	0	424.159	-1.00004	-1.00014	-3.15946	-0.331332	-0.331332	11	-0.0920368	0	0.0920368	0.000000000000000E+000	0.0920368	0.0000000E+000	0.000000000000000E+000	0.00315989
2	0	0	1	0	0	0	425.559	-1.00004	-1.00048	-3.17487	-0.335767	-0.335767	11	-0.0932686	0	0.0932686	0.000000000000000E+000	0.0932686	0.0000000E+000	0.000000000000000E+000	0.0031764
2	0	0	1	0	0	0	426.959	-1.00004	-1.00044	-3.15585	-0.340194	-0.340194	11	-0.0944983	0	0.0944983	0.000000000000000E+000	0.0944983	0.0000000E+000	0.000000000000000E+000	0.00315725
2	0	0	1	0	0	0	428.359	-1.00004	-1.00038	-3.16599	-0.34462	-0.34462	11	-0.0957278	0	0.0957278	0.000000000000000E+000	0.0957278	0.0000000E+000	0.000000000000000E+000	0.00316721
2	0	0	1	0	0	0	429.759	-1.00004	-1.00052	-3.16868	-0.349045	-0.349045	11	-0.096957	0	0.096957	0.000000000000000E+000	0.096957	0.0000000E+000	0.000000000000000E+000	0.00317032
2	0	0	1	0	0	0	431.159	-1.00004	-1.0005	-3.1643	-0.353487	-0.353487	11	-0.0981907	0	0.0981907	0.000000000000000E+000	0.0981907	0.0000000E+000	0.000000000000000E+000	0.00316588
2	0	0	1	0	0	0	432.559	-1.00004	-1.0004	-3.17611	-0.357933	-0.357933	11	-0.0994259	0	0.0994259	0.000000000000000E+000	0.0994259	0.0000000E+000	0.000000000000000E+000	0.00317739
2	0	0	1	0	0	0	433.959	-1.00004	-1.00038	-2.85116	-0.36223	-0.36223	11	-0.10062	0	0.10062	0.000000000000000E+000	0.10062	0.0000000E+000	0.000000000000000E+000	0.00285226
2	0	0	1	0	0	0	435.359	-1.00004	-1.00027	-2.80677	-0.366171	-0.366171	11	-0.101714	0	0.101714	0.000000000000000E+000	0.101714	0.0000000E+000	0.000000000000000E+000	0.00280753
2	0	0	1	0	0	0	436.759	-1.00004	-1.00059	-2.79452	-0.370102	-0.370102	11	-0.102806	0	0.102806	0.000000000000000E+000	0.102806	0.0000000E+000	0.000000000000000E+000	0.00279618
2	0	0	1	0	0	0	438.159	-1.00004	-1.00048	-2.78687	-0.374006	-0.374006	11	-0.10389	0	0.10389	0.000000000000000E+000	0.10389	0.0000000E+000	0.000000000000000E+000	0.00278821
2	0	0	1	0	0	0	439.559	-1.00004	-1.00037	-2.79354	-0.377918	-0.377918	11	-0.104977	0	0.104977	0.000000000000000E+000	0.104977	0.0000000E+000	0.000000000000000E+000	0.00279456
2	0	0	1	0	0	0	440.959	-1.00004	-1.00046	-2.78081	-0.381824	-0.381824	11	-0.106062	0	0.106062	0.000000000000000E+000	0.106062	0.0000000E+000	0.000000000000000E+000	0.00278209
2	0	0	1	0	0	0	442.359	-1.00004	-1.00044	-2.79182	-0.385711	-0.385711	11	-0.107142	0	0.107142	0.000000000000000E+000	0.107142	0.0000000E+000	0.000000000000000E+000	0.00279306
2	0	0	1	0	0	0	443.759	-1.00004	-1.0004	-2.79849	-0.389644	-0.389644	11	-0.108235	0	0.108235	0.000000000000000E+000	0.108235	0.0000000E+000	0.000000000000000E+000	0.00279962
2	0	0	1	0	0	0	445.159	-1.00004	-1.00037	-2.78932	-0.39356	-0.39356	11	-0.109322	0	0.109322	0.000000000000000E+000	0.109322	0.0000000E+000	0.000000000000000E+000	0.00279034
2	0	0	1	0	0	0	446.559	-1.00004	-1.00035	-2.8041	-0.397482	-0.397482	11	-0.110412	0	0.110412	0.000000000000000E+000	0.110412	0.0000000E+000	0.000000000000000E+000	0.00280507
2	0	0	1	0	0	0	447.959	-1.00004	-1.00042	-2.79535	-0.401399	-0.401399	11	-0.1115	0	0.1115	0.000000000000000E+000	0.1115	0.0000000E+000	0.000000000000000E+000	0.00279654
2	0	0	1	0	0	0	449.359	-1.00004	-1.00037	-2.80219	-0.405317	-0.405317	11	-0.112588	0	0.112588	0.000000000000000E+000	0.112588	0.0000000E+000	0.000000000000000E+000	0.00280322
2	0	0	1	0	0	0	450.759	-1.00004	-1.00044	-2.79784	-0.409241	-0.409241	11	-0.113678	0	0.113678	0.000000000000000E+000	0.113678	0.0000000E+000	0.000000000000000E+000	0.00279908
2	0	0	1	0	0	0	452.159	-1.00004	-1.0004	-2.79531	-0.413164	-0.413164	11	-0.114768	0	0.114768	0.000000000000000E+000	0.114768	0.0000000E+000	0.000000000000000E+000	0.00279643
2	0	0	1	0	0	0	453.559	-1.00004	-1.00038	-2.79547	-0.417078	-0.417078	11	-0.115855	0	0.115855	0.000000000000000E+000	0.115855	0.0000000E+000	0.000000000000000E+000	0.00279655
2	0	0	1	0	0	0	454.959	-1.00004	-1.00056	-2.40012	-0.420653	-0.420653	11	-0.116848	0	0.116848	0.000000000000000E+000	0.116848	0.0000000E+000	0.000000000000000E+000	0.00240145
2	0	0	1	0	0	0	456.359	-1.00004	-1.00058	-2.34747	-0.423967	-0.423967	11	-0.117768	0	0.117768	0.000000000000000E+000	0.117768	0.0000000E+000	0.000000000000000E+000	0.00234882
2	0	0	1	0	0	0	457.759	-1.00004	-1.00052	-2.32847	-0.427236	-0.427236	11	-0.118677	0	0.118677	0.000000000000000E+000	0.118677	0.0000000E+000	0.000000000000000E+000	0.00232968
2	0	0	1	0	0	0	459.159	-1.00004	-1.00048	-2.31749	-0.430493	-0.430493	11	-0.119581	0	0.119581	0.000000000000000E+000	0.119581	0.0000000E+000	0.000000000000000E+000	0.0023186
2	0	0	1	0	0	0	460.559	-1.00004	-1.0004	-2.33045	-0.43374	-0.43374	11	-0.120483	0	0.120483	0.000000000000000E+000	0.120483	0.0000000E+000	0.000000000000000E+000	0.00233139
2	0	0	1	0	0	0	461.959	-1.00004	-1.0005	-2.326	-0.436992	-0.436992	11	-0.121387	0	0.121387	0.000000000000000E+000	0.121387	0.0000000E+000	0.000000000000000E+000	0.00232716
2	0	0	1	0	0	0	463.359	-1.00004	-1.00054	-2.32615	-0.440236	-0.440236	11	-0.122288	0	0.122288	0.000000000000000E+000	0.122288	0.0000000E+000	0.000000000000000E+000	0.00232739
2	0	0	1	0	0	0	464.759	-1.00004	-1.00038	-2.31638	-0.443477	-0.443477	11	-0.123188	0	0.123188	0.000000000000000E+000	0.123188	0.0000000E+000	0.000000000000000E+000	0.00231727
2	0	0	1	0	0	0	466.159	-1.00004	-1.0004	-2.30433	-0.446715	-0.446715	11	-0.124088	0	0.124088	0.000000000000000E+000	0.124088	0.0000000E+000	0.000000000000000E+000	0.00230526
2	0	0	1	0	0	0	467.559	-1.00004	-1.00058	-2.30277	-0.449945	-0.449945	11	-0.124985	0	0.124985	0.000000000000000E+000	0.124985	0.0000000E+000	0.000000000000000E+000	0.00230409
2	0	0	1	0	0	0	468.959	-1.00004	-1.00063	-2.28037	-0.453155	-0.453155	11	-0.125876	0	0.125876	0.000000000000000E+000	0.125876	0.0000000E+000	0.000000000000000E+000	0.00228181
2	0	0	1	0	0	0	470.359	-1.00004	-1.00037	-2.28835	-0.456365	-0.456365	11	-0.126768	0	0.126768	0.000000000000000E+000	0.126768	0.0000000E+000	0.000000000000000E+000	0.00228919
2	0	0	1	0	0	0	471.759	-1.00004	-1.00042	-2.26812	-0.459553	-0.459553	11	-0.127653	0	0.127653	0.000000000000000E+000	0.127653	0.0000000E+000	0.000000000000000E+000	0.00226908
2	0	0	1	0	0	0	473.159	-1.00004	-1.00042	-2.26974	-0.462732	-0.462732	11	-0.128537	0	0.128537	0.000000000000000E+000	0.128537	0.0000000E+000	0.000000000000000E+000	0.0022707
2	0	0	1	0	0	0	474.559	-1.00004	-1.00048	-2.27122	-0.465904	-0.465904	11	-0.129418	0	0.129418	0.000000000000000E+000	0.129418	0.0000000E+000	0.000000000000000E+000	0.00227231
2	0	0	1	0	0	0	475.959	-1.00004	-1.00035	-2.28207	-0.469099	-0.469099	11	-0.130305	0	0.130305	0.000000000000000E+000	0.130305	0.0000000E+000	0.000000000000000E+000	0.00228286
2	0	0	1	0	0	0	477.359	-1.00004	-1.00048	-2.29104	-0.472306	-0.472306	11	-0.131196	0	0.131196	0.000000000000000E+000	0.131196	0.0000000E+000	0.000000000000000E+000	0.00229214
2	0	0	1	0	0	0	478.759	-1.00004	-1.00046	-2.28152	-0.475512	-0.475512	11	-0.132087	0	0.132087	0.000000000000000E+000	0.132087	0.0000000E+000	0.000000000000000E+000	0.00228257
2	0	0	1	0	0	0	480.159	-1.00004	-1.00035	-2.28312	-0.478695	-0.478695	11	-0.132971	0	0.132971	0.000000000000000E+000	0.132971	0.0000000E+000	0.000000000000000E+000	0.00228391
2	0	0	1	0	0	0	481.559	-1.00004	-1.00038	-2.26232	-0.481876	-0.481876	11	-0.133855	0	0.133855	0.000000000000000E+000	0.133855	0.0000000E+000	0.000000000000000E+000	0.00226319
2	0	0	1	0	0	0	482.959	-1.00004	-1.00038	-2.26514	-0.485046	-0.485046	11	-0.134735	0	0.134735	0.000000000000000E+000	0.134735	0.0000000E+000	0.000000000000000E+000	0.00226601
2	0	0	1	0	0	0	484.359	-1.00004	-1.00037	-2.29338	-0.488269	-0.488269	11	-0.13563	0	0.13563	0.000000000000000E+000	0.13563	0.0000000E+000	0.000000000000000E+000	0.00229422
2	0	0	1	0	0	0	485.759	-1.00004	-1.0004	-2.28217	-0.491466	-0.491466	11	-0.136518	0	0.136518	0.000000000000000E+000	0.136518	0.0000000E+000	0.000000000000000E+000	0.00228309
2	0	0	1	0	0	0	487.159	-1.00004	-1.00033	-2.27211	-0.494653	-0.494653	11	-0.137404	0	0.137404	0.000000000000000E+000	0.137404	0.0000000E+000	0.000000000000000E+000	0.00227285
2	0	0	1	0	0	0	488.559	-1.00004	-1.00046	-2.27136	-0.497842	-0.497842	11	-0.138289	0	0.138289	0.000000000000000E+000	0.138289	0.0000000E+000	0.000000000000000E+000	0.0022724
2	0	0	1	0	0	0	489.959	-1.00004	-1.00052	-2.24497	-0.501003	-0.501003	11	-0.139167	0	0.139167	0.000000000000000E+000	0.139167	0.0000000E+000	0.000000000000000E+000	0.00224614
2	0	0	1	0	0	0	491.359	-1.00004	-1.00037	-2.25864	-0.504148	-0.504148	11	-0.140041	0	0.140041	0.000000000000000E+000	0.140041	0.0000000E+000	0.000000000000000E+000	0.00225946
2	0	0	1	0	0	0	492.759	-1.00004	-1.0004	-2.2564	-0.507306	-0.507306	11	-0.140918	0	0.140918	0.000000000000000E+000	0.140918	0.0000000E+000	0.000000000000000E+000	0.00225731
2	0	0	1	0	0	0	494.159	-1.00004	-1.00056	-2.12459	-0.510409	-0.510409	11	-0.14178	0	0.14178	0.000000000000000E+000	0.14178	0.0000000E+000	0.000000000000000E+000	0.00212577
2	0	0	1	0	0	0	495.559	-1.00004	-1.00037	-2.04925	-0.513315	-0.513315	11	-0.142587	0	0.142587	0.000000000000000E+000	0.142587	0.0000000E+000	0.000000000000000E+000	0.00205
2	0	0	1	0	0	0	496.959	-1.00004	-1.00044	-2.02659	-0.51616	-0.51616	11	-0.143378	0	0.143378	0.000000000000000E+000	0.143378	0.0000000E+000	0.000000000000000E+000	0.00202748
2	0	0	1	0	0	0	498.359	-1.00004	-1.00046	-2.01665	-0.518993	-0.518993	11	-0.144165	0	0.144165	0.000000000000000E+000	0.144165	0.0000000E+000	0.000000000000000E+000	0.00201758
2	0	0	1	0	0	0	499.759	-1.00004	-1.00044	-2.02183	-0.521821	-0.521821	11	-0.14495	0	0.14495	0.000000000000000E+000	0.14495	0.0000000E+000	0.000000000000000E+000	0.00202273
2	0	0	1	0	0	0	501.159	-1.00004	-1.00048	-2.01989	-0.524664	-0.524664	11	-0.14574	0	0.14574	0.000000000000000E+000	0.14574	0.0000000E+000	0.000000000000000E+000	0.00202086
2	0	0	1	0	0	0	502.559	-1.00004	-1.00046	-2.01709	-0.527498	-0.527498	11	-0.146527	0	0.146527	0.000000000000000E+000	0.146527	0.0000000E+000	0.000000000000000E+000	0.00201802
2	0	0	1	0	0	0	503.959	-1.00004	-1.00037	-2.0376	-0.530332	-0.530332	11	-0.147314	0	0.147314	0.000000000000000E+000	0.147314	0.0000000E+000	0.000000000000000E+000	0.00203834
2	0	0	1	0	0	0	505.359	-1.00004	-1.00042	-2.00875	-0.533143	-0.533143	11	-0.148095	0	0.148095	0.000000000000000E+000	0.148095	0.0000000E+000	0.000000000000000E+000	0.0020096
2	0	0	1	0	0	0	506.759	-1.00004	-1.00048	-2.1147	-0.535948	-0.535948	11	-0.148874	0	0.148874	0.000000000000000E+000	0.148874	0.0000000E+000	0.000000000000000E+000	0.00211571
2	0	0	1	0	0	0	508.159	-1.00004	-1.00052	-2.01775	-0.538791	-0.538791	11	-0.149664	0	0.149664	0.000000000000000E+000	0.149664	0.0000000E+000	0.000000000000000E+000	0.00201879
2	0	0	1	0	0	0	509.559	-1.00004	-1.00048	-2.01058	-0.541597	-0.541597	11	-0.150444	0	0.150444	0.000000000000000E+000	0.150444	0.0000000E+000	0.000000000000000E+000	0.00201154
2	0	0	1	0	0	0	510.959	-1.00004	-1.00042	-1.9988	-0.544413	-0.544413	11	-0.151226	0	0.151226	0.000000000000000E+000	0.151226	0.0000000E+000	0.000000000000000E+000	0.00199965
2	0	0	1	0	0	0	512.359	-1.00004	-1.00038	-2.02406	-0.547234	-0.547234	11	-0.152009	0	0.152009	0.000000000000000E+000	0.152009	0.0000000E+000	0.000000000000000E+000	0.00202484
2	0	0	1	0	0	0	513.759	-1.00004	-1.00044	-2.02026	-0.550049	-0.550049	11	-0.152791	0	0.152791	0.000000000000000E+000	0.152791	0.0000000E+000	0.000000000000000E+000	0.00202115
2	0	0	1	0	0	0	515.159	-1.00004	-1.00048	-1.98629	-0.552856	-0.552856	11	-0.153571	0	0.153571	0.000000000000000E+000	0.153571	0.0000000E+000	0.000000000000000E+000	0.00198724
2	0	0	1	0	0	0	516.559	-1.00004	-1.00042	-1.94578	-0.555643	-0.555643	11	-0.154345	0	0.154345	0.000000000000000E+000	0.154345	0.0000000E+000	0.000000000000000E+000	0.0019466
2	0	0	1	0	0	0	517.959	-1.00004	-1.0004	-1.8402	-0.558254	-0.558254	11	-0.155071	0	0.155071	0.000000000000000E+000	0.155071	0.0000000E+000	0.000000000000000E+000	0.00184094
2	0	0	1	0	0	0	519.359	-1.00004	-1.00038	-1.8028	-0.560796	-0.560796	11	-0.155777	0	0.155777	0.000000000000000E+000	0.155777	0.0000000E+000	0.000000000000000E+000	0.0018035
2	0	0	1	0	0	0	520.759	-1.00004	-1.00042	-1.78513	-0.563308	-0.563308	11	-0.156474	0	0.156474	0.000000000000000E+000	0.156474	0.0000000E+000	0.000000000000000E+000	0.00178589
2	0	0	1	0	0	0	522.159	-1.00004	-1.00035	-1.78315	-0.565807	-0.565807	11	-0.157169	0	0.157169	0.000000000000000E+000	0.157169	0.0000000E+000	0.000000000000000E+000	0.00178377
2	0	0	1	0	0	0	523.559	-1.00004	-1.00048	-1.77841	-0.568299	-0.568299	11	-0.157861	0	0.157861	0.000000000000000E+000	0.157861	0.0000000E+000	0.000000000000000E+000	0.00177926
2	0	0	1	0	0	0	524.959	-1.00004	-1.00044	-1.76971	-0.570791	-0.570791	11	-0.158553	0	0.158553	0.000000000000000E+000	0.158553	0.0000000E+000	0.000000000000000E+000	0.00177049
2	0	0	1	0	0	0	526.359	-1.00004	-1.0005	-1.79813	-0.573288	-0.573288	11	-0.159247	0	0.159247	0.000000000000000E+000	0.159247	0.0000000E+000	0.000000000000000E+000	0.00179902
2	0	0	1	0	0	0	527.759	-1.00004	-1.00048	-1.78084	-0.575784	-0.575784	11	-0.15994	0	0.15994	0.000000000000000E+000	0.15994	0.0000000E+000	0.000000000000000E+000	0.0017817
2	0	0	1	0	0	0	529.159	-1.00004	-1.0004	-1.78689	-0.57829	-0.57829	11	-0.160636	0	0.160636	0.000000000000000E+000	0.160636	0.0000000E+000	0.000000000000000E+000	0.00178761
2	0	0	1	0	0	0	530.559	-1.00004	-1.00038	-1.76881	-0.580775	-0.580775	11	-0.161326	0	0.161326	0.000000000000000E+000	0.161326	0.0000000E+000	0.000000000000000E+000	0.00176949
2	0	0	1	0	0	0	531.959	-1.00004	-1.00033	-1.79123	-0.583253	-0.583253	11	-0.162015	0	0.162015	0.000000000000000E+000	0.162015	0.0000000E+000	0.000000000000000E+000	0.00179181
2	0	0	1	0	0	0	533.359	-1.00004	-1.00037	-1.75897	-0.585731	-0.585731	11	-0.162703	0	0.162703	0.000000000000000E+000	0.162703	0.0000000E+000	0.000000000000000E+000	0.00175962
2	0	0	1	0	0	0	534.759	-1.00004	-1.00046	-1.77912	-0.588214	-0.588214	11	-0.163393	0	0.163393	0.000000000000000E+000	0.163393	0.0000000E+000	0.000000000000000E+000	0.00177994
2	0	0	1	0	0	0	536.159	-1.00004	-1.0005	-1.72048	-0.590667	-0.590667	11	-0.164074	0	0.164074	0.000000000000000E+000	0.164074	0.0000000E+000	0.000000000000000E+000	0.00172134
2	0	0	1	0	0	0	537.559	-1.00004	-1.00048	-1.67834	-0.593042	-0.593042	11	-0.164734	0	0.164734	0.000000000000000E+000	0.164734	0.0000000E+000	0.000000000000000E+000	0.00167915
2	0	0	1	0	0	0	538.959	-1.00004	-1.00048	-1.65888	-0.595381	-0.595381	11	-0.165384	0	0.165384	0.000000000000000E+000	0.165384	0.0000000E+000	0.000000000000000E+000	0.00165967
2	0	0	1	0	0	0	540.359	-1.00004	-1.00035	-1.65246	-0.597701	-0.597701	11	-0.166028	0	0.166028	0.000000000000000E+000	0.166028	0.0000000E+000	0.000000000000000E+000	0.00165303
2	0	0	1	0	0	0	541.759	-1.00004	-1.0004	-1.6442	-0.600011	-0.600011	11	-0.16667	0	0.16667	0.000000000000000E+000	0.16667	0.0000000E+000	0.000000000000000E+000	0.00164486
2	0	0	1	0	0	0	543.159	-1.00004	-1.00046	-1.64028	-0.602316	-0.602316	11	-0.16731	0	0.16731	0.000000000000000E+000	0.16731	0.0000000E+000	0.000000000000000E+000	0.00164104
2	0	0	1	0	0	0	544.559	-1.00004	-1.00061	-1.64046	-0.604614	-0.604614	11	-0.167948	0	0.167948	0.000000000000000E+000	0.167948	0.0000000E+000	0.000000000000000E+000	0.00164146
2	0	0	1	0	0	0	545.959	-1.00004	-1.00038	-1.6366	-0.606911	-0.606911	11	-0.168586	0	0.168586	0.000000000000000E+000	0.168586	0.0000000E+000	0.000000000000000E+000	0.00163723
2	0	0	1	0	0	0	547.359	-1.00004	-1.00052	-1.62515	-0.609192	-0.609192	11	-0.16922	0	0.16922	0.000000000000000E+000	0.16922	0.0000000E+000	0.000000000000000E+000	0.001626
2	0	0	1	0	0	0	548.759	-1.00004	-1.00054	-1.63654	-0.611482	-0.611482	11	-0.169856	0	0.169856	0.000000000000000E+000	0.169856	0.0000000E+000	0.000000000000000E+000	0.00163742
2	0	0	1	0	0	0	550.159	-1.00004	-1.00033	-1.62805	-0.613774	-0.613774	11	-0.170493	0	0.170493	0.000000000000000E+000	0.170493	0.0000000E+000	0.000000000000000E+000	0.00162858
2	0	0	1	0	0	0	551.559	-1.00004	-1.00048	-1.62886	-0.616063	-0.616063	11	-0.171129	0	0.171129	0.000000000000000E+000	0.171129	0.0000000E+000	0.000000000000000E+000	0.00162964
2	0	0	1	0	0	0	552.959	-1.00004	-1.0005	-1.61325	-0.618345	-0.618345	11	-0.171762	0	0.171762	0.000000000000000E+000	0.171762	0.0000000E+000	0.000000000000000E+000	0.00161405
2	0	0	1	0	0	0	554.359	-1.00004	-1.00029	-1.61382	-0.620606	-0.620606	11	-0.172391	0	0.172391	0.000000000000000E+000	0.172391	0.0000000E+000	0.000000000000000E+000	0.00161429
2	0	0	1	0	0	0	555.759	-1.00004	-1.00038	-1.64172	-0.622908	-0.622908	11	-0.17303	0	0.17303	0.000000000000000E+000	0.17303	0.0000000E+000	0.000000000000000E+000	0.00164235
2	0	0	1	0	0	0	557.159	-1.00004	-1.00052	-1.62238	-0.625192	-0.625192	11	-0.173664	0	0.173664	0.000000000000000E+000	0.173664	0.0000000E+000	0.000000000000000E+000	0.00162322
2	0	0	1	0	0	0	558.559	-1.00004	-1.00031	-1.62785	-0.627468	-0.627468	11	-0.174297	0	0.174297	0.000000000000000E+000	0.174297	0.0000000E+000	0.000000000000000E+000	0.00162836
2	0	0	1	0	0	0	559.959	-1.00004	-1.00044	-1.63374	-0.62974	-0.62974	11	-0.174928	0	0.174928	0.000000000000000E+000	0.174928	0.0000000E+000	0.000000000000000E+000	0.00163446
2	0	0	1	0	0	0	561.359	-1.00004	-1.00042	-1.66531	-0.632051	-0.632051	11	-0.17557	0	0.17557	0.000000000000000E+000	0.17557	0.0000000E+000	0.000000000000000E+000	0.00166602
2	0	0	1	0	0	0	562.759	-1.00004	-1.00038	-1.6913	-0.634403	-0.634403	11	-0.176223	0	0.176223	0.000000000000000E+000	0.176223	0.0000000E+000	0.000000000000000E+000	0.00169195
2	0	0	1	0	0	0	564.159	-1.00004	-1.00035	-1.69969	-0.636778	-0.636778	11	-0.176883	0	0.176883	0.000000000000000E+000	0.176883	0.0000000E+000	0.000000000000000E+000	0.00170028
2	0	0	1	0	0	0	565.559	-1.00004	-1.00054	-1.71352	-0.639167	-0.639167	11	-0.177547	0	0.177547	0.000000000000000E+000	0.177547	0.0000000E+000	0.000000000000000E+000	0.00171444
2	0	0	1	0	0	0	566.959	-1.00004	-1.0004	-1.73173	-0.641587	-0.641587	11	-0.178219	0	0.178219	0.000000000000000E+000	0.178219	0.0000000E+000	0.000000000000000E+000	0.00173243
2	0	0	1	0	0	0	568.359	-1.00004	-1.0004	-1.78056	-0.644018	-0.644018	11	-0.178894	0	0.178894	0.000000000000000E+000	0.178894	0.0000000E+000	0.000000000000000E+000	0.00178128
2	0	0	1	0	0	0	569.759	-1.00004	-1.00044	-1.7444	-0.646493	-0.646493	11	-0.179581	0	0.179581	0.000000000000000E+000	0.179581	0.0000000E+000	0.000000000000000E+000	0.00174517
2	0	0	1	0	0	0	571.159	-1.00004	-1.00048	-1.75171	-0.64894	-0.64894	11	-0.180261	0	0.180261	0.000000000000000E+000	0.180261	0.0000000E+000	0.000000000000000E+000	0.00175255
2	0	0	1	0	0	0	572.559	-1.00004	-1.00029	-1.74221	-0.651387	-0.651387	11	-0.180941	0	0.180941	0.000000000000000E+000	0.180941	0.0000000E+000	0.000000000000000E+000	0.00174271
2	0	0	1	0	0	0	573.959	-1.00004	-1.00044	-1.74221	-0.653823	-0.653823	11	-0.181618	0	0.181618	0.000000000000000E+000	0.181618	0.0000000E+000	0.000000000000000E+000	0.00174298
2	0	0	1	0	0	0	575.359	-1.00004	-1.0005	-1.73971	-0.656253	-0.656253	11	-0.182292	0	0.182292	0.000000000000000E+000	0.182292	0.0000000E+000	0.000000000000000E+000	0.00174058
2	0	0	1	0	0	0	576.759	-1.00004	-1.00042	-1.74324	-0.658707	-0.658707	11	-0.182974	0	0.182974	0.000000000000000E+000	0.182974	0.0000000E+000	0.000000000000000E+000	0.00174397
2	0	0	1	0	0	0	578.159	-1.00004	-1.00048	-1.74842	-0.661154	-0.661154	11	-0.183654	0	0.183654	0.000000000000000E+000	0.183654	0.0000000E+000	0.000000000000000E+000	0.00174926
2	0	0	1	0	0	0	579.559	-1.00004	-1.00048	-1.73661	-0.663582	-0.663582	11	-0.184328	0	0.184328	0.000000000000000E+000	0.184328	0.0000000E+000	0.000000000000000E+000	0.00173745
2	0	0	1	0	0	0	580.959	-1.00004	-1.0004	-1.73281	-0.66602	-0.66602	11	-0.185005	0	0.185005	0.000000000000000E+000	0.185005	0.0000000E+000	0.000000000000000E+000	0.00173351
2	0	0	1	0	0	0	582.359	-1.00004	-1.00054	-1.7447	-0.668455	-0.668455	11	-0.185682	0	0.185682	0.000000000000000E+000	0.185682	0.0000000E+000	0.000000000000000E+000	0.00174564
2	0	0	1	0	0	0	583.759	-1.00004	-1.0005	-1.89229	-0.670984	-0.670984	11	-0.186384	0	0.186384	0.000000000000000E+000	0.186384	0.0000000E+000	0.000000000000000E+000	0.00189323
2	0	0	1	0	0	0	585.159	-1.00004	-1.00033	-1.91706	-0.673661	-0.673661	11	-0.187128	0	0.187128	0.000000000000000E+000	0.187128	0.0000000E+000	0.000000000000000E+000	0.00191769
2	0	0	1	0	0	0	586.559	-1.00004	-1.00042	-1.93969	-0.67637	-0.67637	11	-0.187881	0	0.187881	0.000000000000000E+000	0.187881	0.0000000E+000	0.000000000000000E+000	0.00194051
2	0	0	1	0	0	0	587.959	-1.00004	-1.00038	-1.95119	-0.679098	-0.679098	11	-0.188638	0	0.188638	0.000000000000000E+000	0.188638	0.0000000E+000	0.000000000000000E+000	0.00195194
2	0	0	1	0	0	0	589.359	-1.00004	-1.00042	-1.97795	-0.681843	-0.681843	11	-0.189401	0	0.189401	0.000000000000000E+000	0.189401	0.0000000E+000	0.000000000000000E+000	0.00197878
2	0	0	1	0	0	0	590.759	-1.00004	-1.0005	-1.955	-0.684584	-0.684584	11	-0.190162	0	0.190162	0.000000000000000E+000	0.190162	0.0000000E+000	0.000000000000000E+000	0.00195597
2	0	0	1	0	0	0	592.159	-1.00004	-1.00037	-1.95994	-0.687321	-0.687321	11	-0.190923	0	0.190923	0.000000000000000E+000	0.190923	0.0000000E+000	0.000000000000000E+000	0.00196065
2	0	0	1	0	0	0	593.559	-1.00004	-1.00052	-1.96565	-0.690066	-0.690066	11	-0.191685	0	0.191685	0.000000000000000E+000	0.191685	0.0000000E+000	0.000000000000000E+000	0.00196667
2	0	0	1	0	0	0	594.959	-1.00004	-1.00044	-1.94311	-0.692803	-0.692803	11	-0.192445	0	0.192445	0.000000000000000E+000	0.192445	0.0000000E+000	0.000000000000000E+000	0.00194396
2	0	0	1	0	0	0	596.359	-1.00004	-1.00044	-1.94464	-0.695526	-0.695526	11	-0.193202	0	0.193202	0.000000000000000E+000	0.193202	0.0000000E+000	0.000000000000000E+000	0.0019455
2	0	0	1	0	0	0	597.759	-1.00004	-1.00044	-1.93297	-0.698241	-0.698241	11	-0.193956	0	0.193956	0.000000000000000E+000	0.193956	0.0000000E+000	0.000000000000000E+000	0.00193382
2	0	0	1	0	0	0	599.159	-1.00004	-1.0004	-1.94101	-0.700959	-0.700959	11	-0.194711	0	0.194711	0.000000000000000E+000	0.194711	0.0000000E+000	0.000000000000000E+000	0.00194179
2	0	0	1	0	0	0	600.559	-1.00004	-1.00044	-1.94654	-0.703671	-0.703671	11	-0.195464	0	0.195464	0.000000000000000E+000	0.195464	0.0000000E+000	0.000000000000000E+000	0.0019474
2	0	0	1	0	0	0	601.959	-1.00004	-1.00046	-1.93003	-0.706386	-0.706386	11	-0.196218	0	0.196218	0.000000000000000E+000	0.196218	0.0000000E+000	0.000000000000000E+000	0.00193092
2	0	0	1	0	0	0	603.359	-1.00004	-1.00037	-2.06952	-0.709188	-0.709188	11	-0.196997	0	0.196997	0.000000000000000E+000	0.196997	0.0000000E+000	0.000000000000000E+000	0.00207028
2	0	0	1	0	0	0	604.759	-1.00004	-1.0004	-2.2024	-0.712203	-0.712203	11	-0.197834	0	0.197834	0.000000000000000E+000	0.197834	0.0000000E+000	0.000000000000000E+000	0.00220329
2	0	0	1	0	0	0	606.159	-1.00004	-1.0005	-2.20865	-0.715294	-0.715294	11	-0.198693	0	0.198693	0.000000000000000E+000	0.198693	0.0000000E+000	0.000000000000000E+000	0.00220976
2	0	0	1	0	0	0	607.559	-1.00004	-1.00048	-2.20842	-0.71838	-0.71838	11	-0.19955	0	0.19955	0.000000000000000E+000	0.19955	0.0000000E+000	0.000000000000000E+000	0.00220948
2	0	0	1	0	0	0	608.959	-1.00004	-1.00048	-2.24631	-0.721509	-0.721509	11	-0.200419	0	0.200419	0.000000000000000E+000	0.200419	0.0000000E+000	0.000000000000000E+000	0.00224739
2	0	0	1	0	0	0	610.359	-1.00004	-1.00035	-2.2241	-0.724626	-0.724626	11	-0.201285	0	0.201285	0.000000000000000E+000	0.201285	0.0000000E+000	0.000000000000000E+000	0.00222487
2	0	0	1	0	0	0	611.759	-1.00004	-1.00046	-2.20102	-0.727734	-0.727734	11	-0.202148	0	0.202148	0.000000000000000E+000	0.202148	0.0000000E+000	0.000000000000000E+000	0.00220204
2	0	0	1	0	0	0	613.159	-1.00004	-1.00037	-2.21852	-0.730832	-0.730832	11	-0.203009	0	0.203009	0.000000000000000E+000	0.203009	0.0000000E+000	0.000000000000000E+000	0.00221934
2	0	0	1	0	0	0	614.559	-1.00004	-1.00033	-2.21091	-0.733937	-0.733937	11	-0.203871	0	0.203871	0.000000000000000E+000	0.203871	0.0000000E+000	0.000000000000000E+000	0.00221163
2	0	0	1	0	0	0	615.959	-1.00004	-1.00046	-2.21858	-0.737042	-0.737042	11	-0.204734	0	0.204734	0.000000000000000E+000	0.204734	0.0000000E+000	0.000000000000000E+000	0.0022196
2	0	0	1	0	0	0	617.359	-1.00004	-1.0004	-2.21229	-0.74015	-0.74015	11	-0.205597	0	0.205597	0.000000000000000E+000	0.205597	0.0000000E+000	0.000000000000000E+000	0.00221319
2	0	0	1	0	0	0	618.759	-1.00004	-1.00048	-2.22486	-0.743256	-0.743256	11	-0.20646	0	0.20646	0.000000000000000E+000	0.20646	0.0000000E+000	0.000000000000000E+000	0.00222593
2	0	0	1	0	0	0	620.159	-1.00004	-1.00056	-2.21839	-0.746364	-0.746364	11	-0.207323	0	0.207323	0.000000000000000E+000	0.207323	0.0000000E+000	0.000000000000000E+000	0.00221962
2	0	0	1	0	0	0	621.559	-1.00004	-1.0005	-2.21436	-0.749473	-0.749473	11	-0.208187	0	0.208187	0.000000000000000E+000	0.208187	0.0000000E+000	0.000000000000000E+000	0.00221547
2	0	0	1	0	0	0	622.959	-1.00004	-1.00046	-2.2048	-0.752559	-0.752559	11	-0.209044	0	0.209044	0.000000000000000E+000	0.209044	0.0000000E+000	0.000000000000000E+000	0.00220582
2	0	0	1	0	0	0	624.359	-1.00004	-1.00044	-2.61338	-0.755974	-0.755974	11	-0.209993	0	0.209993	0.000000000000000E+000	0.209993	0.0000000E+000	0.000000000000000E+000	0.00261454
2	0	0	1	0	0	0	625.759	-1.00004	-1.00035	-2.78362	-0.759768	-0.759768	11	-0.211047	0	0.211047	0.000000000000000E+000	0.211047	0.0000000E+000	0.000000000000000E+000	0.00278458
2	0	0	1	0	0	0	627.159	-1.00004	-1.00029	-2.75556	-0.76364	-0.76364	11	-0.212122	0	0.212122	0.000000000000000E+000	0.212122	0.0000000E+000	0.000000000000000E+000	0.00275635
2	0	0	1	0	0	0	628.559	-1.00004	-1.0004	-2.77553	-0.767521	-0.767521	11	-0.2132	0	0.2132	0.000000000000000E+000	0.2132	0.0000000E+000	0.000000000000000E+000	0.00277665
2	0	0	1	0	0	0	629.959	-1.00004	-1.00035	-2.78054	-0.771407	-0.771407	11	-0.21428	0	0.21428	0.000000000000000E+000	0.21428	0.0000000E+000	0.000000000000000E+000	0.00278151
2	0	0	1	0	0	0	631.359	-1.00004	-1.00042	-2.78032	-0.775294	-0.775294	11	-0.215359	0	0.215359	0.000000000000000E+000	0.215359	0.0000000E+000	0.000000000000000E+000	0.00278149
2	0	0	1	0	0	0	632.759	-1.00004	-1.0005	-2.77123	-0.779189	-0.779189	11	-0.216441	0	0.216441	0.000000000000000E+000	0.216441	0.0000000E+000	0.000000000000000E+000	0.00277261
2	0	0	1	0	0	0	634.159	-1.00004	-1.00071	-2.76865	-0.783063	-0.783063	11	-0.217517	0	0.217517	0.000000000000000E+000	0.217517	0.0000000E+000	0.000000000000000E+000	0.00277062
2	0	0	1	0	0	0	635.559	-1.00004	-1.0005	-2.88953	-0.786986	-0.786986	11	-0.218607	0	0.218607	0.000000000000000E+000	0.218607	0.0000000E+000	0.000000000000000E+000	0.00289097
2	0	0	1	0	0	0	636.959	-1.00004	-1.00042	-2.79387	-0.79093	-0.79093	11	-0.219703	0	0.219703	0.000000000000000E+000	0.219703	0.0000000E+000	0.000000000000000E+000	0.00279505
2	0	0	1	0	0	0	638.359	-1.00004	-1.00054	-2.78873	-0.79483	-0.79483	11	-0.220786	0	0.220786	0.000000000000000E+000	0.220786	0.0000000E+000	0.000000000000000E+000	0.00279023
2	0	0	1	0	0	0	639.759	-1.00004	-1.00042	-2.78647	-0.798732	-0.798732	11	-0.22187	0	0.22187	0.000000000000000E+000	0.22187	0.0000000E+000	0.000000000000000E+000	0.00278764
2	0	0	1	0	0	0	641.159	-1.00004	-1.00042	-2.76933	-0.802609	-0.802609	11	-0.222947	0	0.222947	0.000000000000000E+000	0.222947	0.0000000E+000	0.000000000000000E+000	0.0027705
2	0	0	1	0	0	0	642.559	-1.00004	-1.00037	-2.77021	-0.806494	-0.806494	11	-0.224026	0	0.224026	0.000000000000000E+000	0.224026	0.0000000E+000	0.000000000000000E+000	0.00277122
2	0	0	1	0	0	0	643.959	-1.00004	-1.00044	-2.78678	-0.81039	-0.81039	11	-0.225108	0	0.225108	0.000000000000000E+000	0.225108	0.0000000E+000	0.000000000000000E+000	0.00278801
2	0	0	1	0	0	0	645.359	-1.00004	-1.00044	-2.76944	-0.814275	-0.814275	11	-0.226188	0	0.226188	0.000000000000000E+000	0.226188	0.0000000E+000	0.000000000000000E+000	0.00277067
2	0	0	1	0	0	0	646.759	-1.00004	-1.00058	-2.77231	-0.818155	-0.818155	11	-0.227265	0	0.227265	0.000000000000000E+000	0.227265	0.0000000E+000	0.000000000000000E+000	0.00277391
2	0	0	1	0	0	0	648.159	-1.00004	-1.0004	-2.86198	-0.822053	-0.822053	11	-0.228348	0	0.228348	0.000000000000000E+000	0.228348	0.0000000E+000	0.000000000000000E+000	0.00286313
2	0	0	1	0	0	0	649.559	-1.00004	-1.00042	-3.07624	-0.826228	-0.826228	11	-0.229508	0	0.229508	0.000000000000000E+000	0.229508	0.0000000E+000	0.000000000000000E+000	0.00307754
2	0	0	1	0	0	0	650.959	-1.00004	-1.00044	-3.09291	-0.830534	-0.830534	11	-0.230704	0	0.230704	0.000000000000000E+000	0.230704	0.0000000E+000	0.000000000000000E+000	0.00309428
2	0	0	1	0	0	0	652.359	-1.00004	-1.00058	-3.02334	-0.83481	-0.83481	11	-0.231892	0	0.231892	0.000000000000000E+000	0.231892	0.0000000E+000	0.000000000000000E+000	0.00302508
2	0	0	1	0	0	0	653.759	-1.00004	-1.00044	-3.07391	-0.839093	-0.839093	11	-0.233081	0	0.233081	0.000000000000000E+000	0.233081	0.0000000E+000	0.000000000000000E+000	0.00307527
2	0	0	1	0	0	0	655.159	-1.00004	-1.00042	-3.06534	-0.843381	-0.843381	11	-0.234273	0	0.234273	0.000000000000000E+000	0.234273	0.0000000E+000	0.000000000000000E+000	0.00306663
2	0	0	1	0	0	0	656.559	-1.00004	-1.0004	-3.07327	-0.847679	-0.847679	11	-0.235467	0	0.235467	0.000000000000000E+000	0.235467	0.0000000E+000	0.000000000000000E+000	0.00307451
2	0	0	1	0	0	0	657.959	-1.00004	-1.0004	-3.17559	-0.85214	-0.85214	11	-0.236706	0	0.236706	0.000000000000000E+000	0.236706	0.0000000E+000	0.000000000000000E+000	0.00317687
2	0	0	1	0	0	0	659.359	-1.00004	-1.00048	-3.1796	-0.856596	-0.856596	11	-0.237943	0	0.237943	0.000000000000000E+000	0.237943	0.0000000E+000	0.000000000000000E+000	0.00318113
2	0	0	1	0	0	0	660.759	-1.00004	-1.00054	-3.16868	-0.86103	-0.86103	11	-0.239175	0	0.239175	0.000000000000000E+000	0.239175	0.0000000E+000	0.000000000000000E+000	0.00317038
2	0	0	1	0	0	0	662.159	-1.00004	-1.00037	-3.19144	-0.865481	-0.865481	11	-0.240411	0	0.240411	0.000000000000000E+000	0.240411	0.0000000E+000	0.000000000000000E+000	0.00319261
2	0	0	1	0	0	0	663.559	-1.00004	-1.00056	-3.19629	-0.869945	-0.869945	11	-0.241652	0	0.241652	0.000000000000000E+000	0.241652	0.0000000E+000	0.000000000000000E+000	0.00319806
2	0	0	1	0	0	0	664.959	-1.00004	-1.00063	-3.20968	-0.874463	-0.874463	11	-0.242906	0	0.242906	0.000000000000000E+000	0.242906	0.0000000E+000	0.000000000000000E+000	0.00321171
2	0	0	1	0	0	0	666.359	-1.00004	-1.00058	-3.1814	-0.878937	-0.878937	11	-0.244149	0	0.244149	0.000000000000000E+000	0.244149	0.0000000E+000	0.000000000000000E+000	0.00318323
2	0	0	1	0	0	0	667.759	-1.00004	-1.00061	-3.16674	-0.883387	-0.883387	11	-0.245385	0	0.245385	0.000000000000000E+000	0.245385	0.0000000E+000	0.000000000000000E+000	0.00316868
2	0	0	1	0	0	0	669.159	-1.00004	-1.00031	-3.20298	-0.887855	-0.887855	11	-0.246627	0	0.246627	0.000000000000000E+000	0.246627	0.0000000E+000	0.000000000000000E+000	0.00320397
2	0	0	1	0	0	0	670.559	-1.00004	-1.00025	-3.20745	-0.892338	-0.892338	11	-0.247872	0	0.247872	0.000000000000000E+000	0.247872	0.0000000E+000	0.000000000000000E+000	0.00320826
2	0	0	1	0	0	0	671.959	-1.00004	-1.00059	-3.20212	-0.896818	-0.896818	11	-0.249116	0	0.249116	0.000000000000000E+000	0.249116	0.0000000E+000	0.000000000000000E+000	0.00320402
2	0	0	1	0	0	0	673.359	-1.00004	-1.00031	-3.20466	-0.901316	-0.901316	11	-0.250366	0	0.250366	0.000000000000000E+000	0.250366	0.0000000E+000	0.000000000000000E+000	0.00320565
2	0	0	1	0	0	0	674.759	-1.00004	-1.00038	-3.18404	-0.905789	-0.905789	11	-0.251608	0	0.251608	0.000000000000000E+000	0.251608	0.0000000E+000	0.000000000000000E+000	0.00318527
2	0	0	1	0	0	0	676.159	-1.00004	-1.00046	-3.20508	-0.910255	-0.910255	11	-0.252849	0	0.252849	0.000000000000000E+000	0.252849	0.0000000E+000	0.000000000000000E+000	0.00320655
2	0	0	1	0	0	0	677.559	-1.00004	-1.0004	-3.22357	-0.914768	-0.914768	11	-0.254102	0	0.254102	0.000000000000000E+000	0.254102	0.0000000E+000	0.000000000000000E+000	0.00322487
2	0	0	1	0	0	0	678.959	-1.00004	-1.00046	-3.23153	-0.919297	-0.919297	11	-0.25536	0	0.25536	0.000000000000000E+000	0.25536	0.0000000E+000	0.000000000000000E+000	0.00323302
2	0	0	1	0	0	0	680.359	-1.00004	-1.0004	-3.21845	-0.923819	-0.923819	11	-0.256616	0	0.256616	0.000000000000000E+000	0.256616	0.0000000E+000	0.000000000000000E+000	0.00321975
2	0	0	1	0	0	0	681.759	-1.00004	-1.00033	-3.20546	-0.928319	-0.928319	11	-0.257866	0	0.257866	0.000000000000000E+000	0.257866	0.0000000E+000	0.000000000000000E+000	0.00320651
2	0	0	1	0	0	0	683.159	-1.00004	-1.00046	-4.16504	-0.933735	-0.933735	11	-0.259371	0	0.259371	0.000000000000000E+000	0.259371	0.0000000E+000	0.000000000000000E+000	0.00416696
2	0	0	1	0	0	0	684.559	-1.00004	-1.00069	-4.04948	-0.939395	-0.939395	11	-0.260943	0	0.260943	0.000000000000000E+000	0.260943	0.0000000E+000	0.000000000000000E+000	0.00405227
2	0	0	1	0	0	0	685.959	-1.00004	-1.0004	-4.04246	-0.945066	-0.945066	11	-0.262518	0	0.262518	0.000000000000000E+000	0.262518	0.0000000E+000	0.000000000000000E+000	0.00404409
2	0	0	1	0	0	0	687.359	-1.00004	-1.00031	-4.03144	-0.950724	-0.950724	11	-0.26409	0	0.26409	0.000000000000000E+000	0.26409	0.0000000E+000	0.000000000000000E+000	0.00403268
2	0	0	1	0	0	0	688.759	-1.00004	-1.00035	-4.02238	-0.95635	-0.95635	11	-0.265653	0	0.265653	0.000000000000000E+000	0.265653	0.0000000E+000	0.000000000000000E+000	0.00402378
2	0	0	1	0	0	0	690.159	-1.00004	-1.00042	-4.07611	-0.961998	-0.961998	11	-0.267222	0	0.267222	0.000000000000000E+000	0.267222	0.0000000E+000	0.000000000000000E+000	0.00407783
2	0	0	1	0	0	0	691.559	-1.00004	-1.00025	-4.08625	-0.967717	-0.967717	11	-0.26881	0	0.26881	0.000000000000000E+000	0.26881	0.0000000E+000	0.000000000000000E+000	0.00408728
2	0	0	1	0	0	0	692.959	-1.00004	-1.00027	-4.1131	-0.973475	-0.973475	11	-0.27041	0	0.27041	0.000000000000000E+000	0.27041	0.0000000E+000	0.000000000000000E+000	0.00411421
2	0	0	1	0	0	0	694.359	-1.00004	-1.00046	-4.11204	-0.979223	-0.979223	11	-0.272006	0	0.272006	0.000000000000000E+000	0.272006	0.0000000E+000	0.000000000000000E+000	0.00411393
2	0	0	1	0	0	0	695.759	-1.00004	-1.00054	-4.08498	-0.984964	-0.984964	11	-0.273601	0	0.273601	0.000000000000000E+000	0.273601	0.0000000E+000	0.000000000000000E+000	0.00408718
2	0	0	1	0	0	0	697.159	-1.00004	-1.00046	-4.08372	-0.990689	-0.990689	11	-0.275191	0	0.275191	0.000000000000000E+000	0.275191	0.0000000E+000	0.000000000000000E+000	0.0040856
2	0	0	1	0	0	0	698.559	-1.00004	-1.00044	-4.03537	-0.99636	-0.99636	11	-0.276767	0	0.276767	0.000000000000000E+000	0.276767	0.0000000E+000	0.000000000000000E+000	0.00403715
2	0	0	1	0	0	0	699.959	-1.00004	-1.00037	-4.06359	-1.00202	-1.00202	11	-0.27834	0	0.27834	0.000000000000000E+000	0.27834	0.0000000E+000	0.000000000000000E+000	0.00406508
2	0	0	1	0	0	0	701.359	-1.00004	-1.00058	-4.0674	-1.00771	-1.00771	11	-0.27992	0	0.27992	0.000000000000000E+000	0.27992	0.0000000E+000	0.000000000000000E+000	0.00406974
2	0	0	1	0	0	0	702.759	-1.00004	-1.00033	-4.03814	-1.01339	-1.01339	11	-0.281497	0	0.281497	0.000000000000000E+000	0.281497	0.0000000E+000	0.000000000000000E+000	0.00403946
2	0	0	1	0	0	0	704.159	-1.00004	-1.0005	-4.04361	-1.01906	-1.01906	11	-0.283073	0	0.283073	0.000000000000000E+000	0.283073	0.0000000E+000	0.000000000000000E+000	0.00404563
2	0	0	1	0	0	0	705.559	-1.00004	-1.00061	-4.05377	-1.02472	-1.02472	11	-0.284646	0	0.284646	0.000000000000000E+000	0.284646	0.0000000E+000	0.000000000000000E+000	0.00405626
2	0	0	1	0	0	0	706.959	-1.00004	-1.0005	-4.02477	-1.03038	-1.03038	11	-0.286215	0	0.286215	0.000000000000000E+000	0.286215	0.0000000E+000	0.000000000000000E+000	0.00402678
2	0	0	1	0	0	0	708.359	-1.00004	-1.00052	-3.99938	-1.03601	-1.03601	11	-0.287779	0	0.287779	0.000000000000000E+000	0.287779	0.0000000E+000	0.000000000000000E+000	0.00400146
2	0	0	1	0	0	0	709.759	-1.00004	-1.00044	-3.98895	-1.0416	-1.0416	11	-0.289332	0	0.289332	0.000000000000000E+000	0.289332	0.0000000E+000	0.000000000000000E+000	0.00399071
2	0	0	1	0	0	0	711.159	-1.00004	-1.00035	-4.05128	-1.04722	-1.04722	11	-0.290894	0	0.290894	0.000000000000000E+000	0.290894	0.0000000E+000	0.000000000000000E+000	0.00405269
2	0	0	1	0	0	0	712.559	-1.00004	-1.0004	-4.03552	-1.05286	-1.05286	11	-0.292461	0	0.292461	0.000000000000000E+000	0.292461	0.0000000E+000	0.000000000000000E+000	0.00403714
2	0	0	1	0	0	0	713.959	-1.00004	-1.00046	-4.03319	-1.05852	-1.05852	11	-0.294033	0	0.294033	0.000000000000000E+000	0.294033	0.0000000E+000	0.000000000000000E+000	0.00403505
2	0	0	1	0	0	0	715.359	-1.00004	-1.00037	-4.02856	-1.06416	-1.06416	11	-0.2956	0	0.2956	0.000000000000000E+000	0.2956	0.0000000E+000	0.000000000000000E+000	0.00403003
2	0	0	1	0	0	0	716.759	-1.00004	-1.00046	-4.0372	-1.06983	-1.06983	11	-0.297175	0	0.297175	0.000000000000000E+000	0.297175	0.0000000E+000	0.000000000000000E+000	0.00403906
2	0	0	1	0	0	0	718.159	-1.00004	-1.00048	-4.02593	-1.07547	-1.07547	11	-0.298742	0	0.298742	0.000000000000000E+000	0.298742	0.0000000E+000	0.000000000000000E+000	0.00402786
2	0	0	1	0	0	0	719.559	-1.00004	-1.00061	-4.02458	-1.08111	-1.08111	11	-0.300308	0	0.300308	0.000000000000000E+000	0.300308	0.0000000E+000	0.000000000000000E+000	0.00402705
2	0	0	1	0	0	0	720.959	-1.00004	-1.00075	-4.04564	-1.08675	-1.08675	11	-0.301875	0	0.301875	0.000000000000000E+000	0.301875	0.0000000E+000	0.000000000000000E+000	0.00404866
2	0	0	1	0	0	0	722.359	-1.00004	-1.00035	-3.96424	-1.09236	-1.09236	11	-0.303433	0	0.303433	0.000000000000000E+000	0.303433	0.0000000E+000	0.000000000000000E+000	0.00396562
2	0	0	1	0	0	0	723.759	-1.00004	-1.00054	-4.00356	-1.09792	-1.09792	11	-0.304978	0	0.304978	0.000000000000000E+000	0.304978	0.0000000E+000	0.000000000000000E+000	0.00400571
2	0	0	1	0	0	0	725.159	-1.00004	-1.00048	-3.98871	-1.10352	-1.10352	11	-0.306534	0	0.306534	0.000000000000000E+000	0.306534	0.0000000E+000	0.000000000000000E+000	0.00399063
2	0	0	1	0	0	0	726.559	-1.00004	-1.00059	-3.9602	-1.1091	-1.1091	11	-0.308083	0	0.308083	0.000000000000000E+000	0.308083	0.0000000E+000	0.000000000000000E+000	0.00396256
2	0	0	1	0	0	0	727.959	-1.00004	-1.00048	-3.91371	-1.11461	-1.11461	11	-0.309615	0	0.309615	0.000000000000000E+000	0.309615	0.0000000E+000	0.000000000000000E+000	0.00391558
2	0	0	1	0	0	0	729.359	-1.00004	-1.00033	-3.96377	-1.12013	-1.12013	11	-0.311146	0	0.311146	0.000000000000000E+000	0.311146	0.0000000E+000	0.000000000000000E+000	0.00396506
2	0	0	1	0	0	0	730.759	-1.00004	-1.00054	-3.98305	-1.12569	-1.12569	11	-0.312692	0	0.312692	0.000000000000000E+000	0.312692	0.0000000E+000	0.000000000000000E+000	0.00398519
2	0	0	1	0	0	0	730.896	-1.00004	-1.00037	-3.98162	-1.12624	-1.12624	11	-0.312844	0	0.312844	0.000000000000000E+000	0.312844	0.0000000E+000	0.000000000000000E+000	0.00398307